**Manufacturer reference [X138026] 
=> Used on CM03 [TT07]**


Thermometre :	CX_LS_X138026
Environment :	VA
Date :	06/02/2020
Function :	 logT = Sum ( Ai / logR^i )
Coefficients :	
A0=	-4.133081430021755E+3
A1=	97.121455876971566E+3
A2=	-990.763604532621340E+3
A3=	5.782963316541927E+6
A4=	-21.351074320338584E+6
A5=	51.836152008309238E+6
A6=	-82.908575308744416E+6
A7=	84.363024043297276E+6
A8=	-49.612088181135319E+6
A9=	12.858931453089057E+6
Rmes(Ohm)	Tmes(K)	Tfit(K)	dT(mK)	Courant(A)
8.860911E+2	9.9294	9.9318	-2.4070	1E-5
8.254297E+2	10.9377	10.9357	1.9745	1E-5
7.755896E+2	11.9297	11.9269	2.8384	1E-5
7.330765E+2	12.9217	12.9196	2.1272	1E-5
6.962385E+2	13.9136	13.9127	0.9029	1E-5
6.639711E+2	14.9027	14.9033	-0.5550	1E-5
6.324524E+2	15.9954	15.9989	-3.5347	1E-5
6.067700E+2	16.9970	17.0006	-3.5838	1E-5
5.836531E+2	17.9955	17.9984	-2.8547	1E-5
5.626003E+2	18.9942	18.9970	-2.8034	1E-5
5.433564E+2	19.9919	19.9943	-2.4152	1E-5
5.256140E+2	20.9924	20.9938	-1.3551	1E-5
5.092428E+2	21.9910	21.9916	-0.5955	1E-5
4.940546E+2	22.9905	22.9891	1.3642	1E-5
4.802188E+2	23.9670	23.9640	2.9693	1E-5
4.670246E+2	24.9615	24.9581	3.3969	1E-5
4.546190E+2	25.9596	25.9553	4.2623	1E-5
4.427980E+2	26.9707	26.9670	3.6730	1E-5
4.317131E+2	27.9792	27.9749	4.3167	1E-5
4.212878E+2	28.9831	28.9794	3.7347	1E-5
3.615558E+2	36.0436	36.0432	0.4276	1E-5
3.376747E+2	39.6678	39.6745	-6.7449	1E-5
2.754446E+2	52.5119	52.5314	-19.4623	1E-5
2.459285E+2	61.2024	61.2117	-9.3438	1E-5
2.222169E+2	70.0646	70.0594	5.1651	1E-5
2.009577E+2	79.9917	79.9696	22.1083	1E-4
1.818826E+2	91.0576	91.0374	20.2227	1E-4
1.689264E+2	100.1220	100.1078	14.2038	1E-4
1.560733E+2	110.7025	110.7083	-5.8454	1E-4
1.471690E+2	119.1919	119.2101	-18.1580	1E-4
1.383985E+2	128.6930	128.7173	-24.3369	1E-4
1.308443E+2	137.9724	137.9863	-13.8721	1E-4
1.235911E+2	148.0020	148.0151	-13.1445	1E-4
1.174190E+2	157.5816	157.5887	-7.1009	1E-4
1.120297E+2	166.8921	166.8758	16.2603	1E-4
1.071273E+2	176.2177	176.2073	10.3533	1E-4
1.020408E+2	186.9622	186.9361	26.0767	1E-4
9.786546E+1	196.6961	196.6774	18.7476	1E-4
9.510831E+1	203.6507	203.6419	8.8240	1E-4
9.165279E+1	213.0621	213.0498	12.3143	1E-4
8.533203E+1	232.5339	232.5632	-29.2501	1E-4
8.208845E+1	243.9318	243.9573	-25.4539	1E-4
7.953573E+1	253.6775	253.7066	-29.1469	1E-4
7.562969E+1	270.1739	270.1805	-6.6259	1E-4
7.150679E+1	290.1023	290.0531	49.1675	1E-4
6.968833E+1	299.8695	299.8264	43.0989	1E-4
6.779981E+1	310.7385	310.7885	-49.9638	1E-4
