**Manufacturer reference [X138025] 
=> Used on CM03 [TT07]**


Thermometre :	CX_LS_X138025
Environment :	VA
Date :	06/02/2020
Function :	 logT = Sum ( Ai / logR^i )
Coefficients :	
A0=	-143.153515035522300E+0
A1=	14.146185356214797E+3
A2=	-223.087174028499580E+3
A3=	1.637986044836372E+6
A4=	-6.965369579015764E+6
A5=	18.573266140214633E+6
A6=	-31.694722609010398E+6
A7=	33.754652143791571E+6
A8=	-20.498469597793337E+6
A9=	5.432748402257950E+6
Rmes(Ohm)	Tmes(K)	Tfit(K)	dT(mK)	Courant(A)
7.913971E+2	9.9294	9.9331	-3.6904	1E-5
7.393352E+2	10.9377	10.9342	3.4902	1E-5
6.962999E+2	11.9298	11.9256	4.1662	1E-5
6.594741E+2	12.9217	12.9191	2.6473	1E-5
6.274798E+2	13.9136	13.9128	0.7686	1E-5
5.993396E+2	14.9027	14.9057	-2.9579	1E-5
5.718933E+2	15.9954	15.9993	-3.9494	1E-5
5.494408E+2	16.9970	17.0005	-3.5132	1E-5
5.291702E+2	17.9954	17.9986	-3.2086	1E-5
5.106725E+2	18.9942	18.9976	-3.3705	1E-5
4.937423E+2	19.9919	19.9946	-2.6737	1E-5
4.781032E+2	20.9924	20.9938	-1.3976	1E-5
4.636453E+2	21.9910	21.9916	-0.6238	1E-5
4.502118E+2	22.9905	22.9891	1.4292	1E-5
4.379567E+2	23.9670	23.9638	3.1694	1E-5
4.262507E+2	24.9615	24.9580	3.5030	1E-5
4.152396E+2	25.9595	25.9544	5.1152	1E-5
4.047222E+2	26.9706	26.9663	4.2926	1E-5
3.948498E+2	27.9791	27.9742	4.9393	1E-5
3.855576E+2	28.9830	28.9782	4.7811	1E-5
3.320807E+2	36.0431	36.0417	1.3865	1E-5
3.105856E+2	39.6674	39.6738	-6.4288	1E-5
2.542388E+2	52.5117	52.5341	-22.3640	1E-5
2.273278E+2	61.2020	61.2152	-13.1929	1E-5
2.056139E+2	70.0638	70.0605	3.2679	1E-5
1.860672E+2	79.9883	79.9642	24.1188	1E-4
1.684438E+2	91.0553	91.0315	23.8438	1E-4
1.564288E+2	100.1207	100.1036	17.0631	1E-4
1.444753E+2	110.7013	110.7044	-3.1064	1E-4
1.361704E+2	119.1906	119.2071	-16.4644	1E-4
1.279703E+2	128.6913	128.7149	-23.6481	1E-4
1.208879E+2	137.9711	137.9865	-15.4395	1E-4
1.140708E+2	148.0005	148.0176	-17.0814	1E-4
1.082554E+2	157.5805	157.5923	-11.8241	1E-4
1.031655E+2	166.8912	166.8801	11.0873	1E-4
9.852588E+1	176.2169	176.2098	7.0821	1E-4
9.370119E+1	186.9614	186.9349	26.5073	1E-4
8.973125E+1	196.6956	196.6736	21.9923	1E-4
8.710528E+1	203.6516	203.6358	15.7930	1E-4
8.380603E+1	213.0635	213.0488	14.6991	1E-4
7.775909E+1	232.5351	232.5597	-24.6408	1E-4
7.464576E+1	243.9331	243.9570	-23.9270	1E-4
7.219021E+1	253.6791	253.7104	-31.3380	1E-4
6.842261E+1	270.1759	270.1909	-15.0325	1E-4
6.443193E+1	290.1055	290.0580	47.5207	1E-4
6.266584E+1	299.8731	299.8286	44.4574	1E-4
6.082860E+1	310.7402	310.7875	-47.2683	1E-4
