**Manufacturer reference [X138027] 
=> Used on CM03 [TT08]**


Thermometre :	CX_LS_X138027
Environment :	VA
Date :	06/02/2020
Function :	 logT = Sum ( Ai / logR^i )
Coefficients :	
A0=	-931.004462949593630E+0
A1=	31.871089188652862E+3
A2=	-395.432148996277480E+3
A3=	2.594057387120169E+6
A4=	-10.313434324693954E+6
A5=	26.270663392000016E+6
A6=	-43.337386677272722E+6
A7=	44.944224662087023E+6
A8=	-26.706611805780802E+6
A9=	6.949159252687861E+6
Rmes(Ohm)	Tmes(K)	Tfit(K)	dT(mK)	Courant(A)
7.243681E+2	9.9294	9.9333	-3.8531	1E-5
6.786825E+2	10.9377	10.9341	3.6424	1E-5
6.407545E+2	11.9297	11.9255	4.2371	1E-5
6.081859E+2	12.9217	12.9190	2.6862	1E-5
5.798097E+2	13.9136	13.9129	0.7167	1E-5
5.547922E+2	14.9027	14.9056	-2.9125	1E-5
5.303596E+2	15.9954	15.9979	-2.4908	1E-5
5.102582E+2	16.9971	17.0013	-4.1824	1E-5
4.921132E+2	17.9956	17.9996	-4.0045	1E-5
4.755325E+2	18.9942	18.9983	-4.1445	1E-5
4.603322E+2	19.9920	19.9950	-3.0251	1E-5
4.462682E+2	20.9924	20.9939	-1.5278	1E-5
4.332408E+2	21.9911	21.9919	-0.7817	1E-5
4.211214E+2	22.9906	22.9893	1.3320	1E-5
4.100457E+2	23.9669	23.9644	2.5267	1E-5
3.994761E+2	24.9616	24.9566	4.9580	1E-5
3.894851E+2	25.9596	25.9548	4.8341	1E-5
3.799581E+2	26.9707	26.9656	5.1470	1E-5
3.709949E+2	27.9792	27.9734	5.8241	1E-5
3.625424E+2	28.9831	28.9782	4.8789	1E-5
3.137448E+2	36.0441	36.0429	1.2346	1E-5
2.940407E+2	39.6681	39.6748	-6.6963	1E-5
2.421039E+2	52.5121	52.5353	-23.2028	1E-5
2.171461E+2	61.2027	61.2163	-13.5646	1E-5
1.969265E+2	70.0654	70.0631	2.2746	1E-5
1.786589E+2	79.9946	79.9705	24.1009	1E-4
1.621452E+2	91.0599	91.0343	25.6090	1E-4
1.508532E+2	100.1233	100.1044	18.9266	1E-4
1.395883E+2	110.7036	110.7054	-1.8228	1E-4
1.317434E+2	119.1932	119.2097	-16.5166	1E-4
1.239830E+2	128.6945	128.7195	-25.0180	1E-4
1.172696E+2	137.9737	137.9912	-17.4903	1E-4
1.107968E+2	148.0032	148.0222	-19.0353	1E-4
1.052670E+2	157.5828	157.5961	-13.2869	1E-4
1.004210E+2	166.8930	166.8820	10.9682	1E-4
9.599796E+1	176.2185	176.2108	7.7438	1E-4
9.139320E+1	186.9629	186.9346	28.3194	1E-4
8.760001E+1	196.6965	196.6725	24.0027	1E-4
8.508967E+1	203.6498	203.6319	17.8741	1E-4
8.193211E+1	213.0610	213.0447	16.3223	1E-4
7.613646E+1	232.5328	232.5589	-26.0885	1E-4
7.314862E+1	243.9306	243.9574	-26.8210	1E-4
7.079030E+1	253.6759	253.7101	-34.1654	1E-4
6.716841E+1	270.1711	270.1868	-15.6950	1E-4
6.332746E+1	290.0992	290.0479	51.2679	1E-4
6.162626E+1	299.8660	299.8182	47.7981	1E-4
5.985505E+1	310.7367	310.7876	-50.9236	1E-4
