**Manufacturer reference [X133108] 
=> Used on CM13 [TT12]**


Thermometre :	CX_LS_X133108
Environment :	VA
Date :	15/04/2019
Function :	 logT = Sum ( Ai / logR^i )
Coefficients :	
A0=	549.612008889794420E+0
A1=	-4.636363897682939E+3
A2=	-11.814471444920364E+3
A3=	313.431203647017360E+3
A4=	-1.799690712584003E+6
A5=	5.477362744524651E+6
A6=	-10.004743724233953E+6
A7=	11.045827539311230E+6
A8=	-6.826920150087832E+6
A9=	1.820049496847918E+6
Rmes(Ohm)	Tmes(K)	Tfit(K)	dT(mK)	Courant(A)
7.823471E+2	9.9296	9.9328	-3.2326	1E-5
7.268034E+2	10.9371	10.9341	3.0424	1E-5
6.811631E+2	11.9283	11.9248	3.4917	1E-5
6.422475E+2	12.9209	12.9188	2.0962	1E-5
6.085646E+2	13.9141	13.9140	0.0561	1E-5
5.791337E+2	14.9061	14.9060	0.0999	1E-5
5.504433E+2	15.9996	16.0028	-3.1997	1E-5
5.271082E+2	17.0009	17.0051	-4.2350	1E-5
5.061162E+2	18.0007	18.0044	-3.6866	1E-5
4.870839E+2	18.9979	19.0013	-3.3576	1E-5
4.696890E+2	19.9950	19.9977	-2.7412	1E-5
4.536401E+2	20.9967	20.9982	-1.5219	1E-5
4.388781E+2	21.9945	21.9951	-0.5976	1E-5
4.252225E+2	22.9904	22.9897	0.6502	1E-5
4.124882E+2	23.9893	23.9866	2.7245	1E-5
4.005819E+2	24.9885	24.9851	3.4445	1E-5
3.894686E+2	25.9855	25.9805	5.0071	1E-5
3.791320E+2	26.9725	26.9664	6.1476	1E-5
3.691061E+2	27.9876	27.9827	4.9273	1E-5
3.598354E+2	28.9835	28.9796	3.9368	1E-5
3.069181E+2	35.9747	35.9759	-1.1948	1E-5
2.862047E+2	39.4947	39.5009	-6.2040	1E-5
2.315714E+2	52.1267	52.1444	-17.6938	1E-5
2.045080E+2	61.1360	61.1441	-8.0822	1E-5
1.846400E+2	69.5647	69.5658	-1.1126	1E-5
1.649317E+2	80.0923	80.0693	22.9794	1E-4
1.488605E+2	90.8345	90.8194	15.1179	1E-4
1.380442E+2	99.5429	99.5313	11.5942	1E-4
1.269811E+2	110.0305	110.0324	-1.8810	1E-4
1.191839E+2	118.6320	118.6347	-2.6699	1E-4
1.118522E+2	127.8215	127.8370	-15.4956	1E-4
1.052118E+2	137.2736	137.2936	-20.0179	1E-4
9.898209E+1	147.3162	147.3340	-17.8119	1E-4
9.353259E+1	157.2199	157.2318	-11.9180	1E-4
8.897952E+1	166.4567	166.4531	3.5942	1E-4
8.481289E+1	175.8013	175.7884	12.8650	1E-4
8.070541E+1	185.9937	185.9777	15.9880	1E-4
7.705283E+1	196.0284	196.0045	23.8858	1E-4
7.453623E+1	203.5467	203.5247	22.0370	1E-4
7.162782E+1	212.9354	212.9268	8.6181	1E-4
6.673324E+1	230.7560	230.7730	-17.0326	1E-4
6.404901E+1	241.8092	241.8369	-27.6725	1E-4
6.178019E+1	251.9913	252.0209	-29.5914	1E-4
5.832462E+1	269.2421	269.2455	-3.3719	1E-4
5.468199E+1	290.1866	290.1511	35.5054	1E-4
5.260967E+1	303.7058	303.6610	44.8442	1E-4
5.152338E+1	311.2897	311.3381	-48.3509	1E-4
