**Manufacturer reference [X139085] 
=> Used on CM13 [TT07]**


Thermometre :	CX_LS_X139085
Environment :	VA
Date :	06/02/2020
Function :	 logT = Sum ( Ai / logR^i )
Coefficients :	
A0=	884.891319603417630E+0
A1=	-12.020224274882257E+3
A2=	56.553228121656873E+3
A3=	-39.257738026424973E+3
A4=	-678.143201637938620E+3
A5=	3.198629791447626E+6
A6=	-7.062349329987188E+6
A7=	8.746876334654585E+6
A8=	-5.867880942384480E+6
A9=	1.668492243393942E+6
Rmes(Ohm)	Tmes(K)	Tfit(K)	dT(mK)	Courant(A)
9.571996E+2	9.9296	9.9326	-3.0074	1E-5
8.873213E+2	10.9378	10.9351	2.7415	1E-5
8.300146E+2	11.9296	11.9266	3.0335	1E-5
7.812884E+2	12.9219	12.9198	2.0858	1E-5
7.392610E+2	13.9138	13.9118	1.9871	1E-5
7.024160E+2	14.9028	14.9049	-2.1351	1E-5
6.667165E+2	15.9953	15.9975	-2.2388	1E-5
6.375219E+2	16.9980	17.0026	-4.6433	1E-5
6.113731E+2	17.9978	18.0015	-3.7442	1E-5
5.877343E+2	18.9941	18.9961	-2.0127	1E-5
5.660394E+2	19.9924	19.9955	-3.0809	1E-5
5.461306E+2	20.9927	20.9945	-1.8344	1E-5
5.277871E+2	21.9920	21.9926	-0.6216	1E-5
5.107970E+2	22.9921	22.9908	1.2664	1E-5
4.954197E+2	23.9650	23.9619	3.1296	1E-5
4.806755E+2	24.9629	24.9593	3.6207	1E-5
4.668534E+2	25.9628	25.9590	3.8297	1E-5
4.537739E+2	26.9732	26.9680	5.2362	1E-5
4.414928E+2	27.9809	27.9762	4.7180	1E-5
4.299531E+2	28.9850	28.9819	3.1048	1E-5
3.642086E+2	36.0611	36.0605	0.6392	1E-5
3.382125E+2	39.6826	39.6893	-6.7172	1E-5
2.710929E+2	52.5202	52.5374	-17.1873	1E-5
2.395769E+2	61.2162	61.2234	-7.1861	1E-5
2.144113E+2	70.0979	70.0954	2.4778	1E-5
1.919015E+2	80.1079	80.0962	11.7446	1E-4
1.721100E+2	91.1495	91.1298	19.7355	1E-4
1.587703E+2	100.1724	100.1562	16.2166	1E-4
1.455600E+2	110.7463	110.7455	0.7867	1E-4
1.364389E+2	119.2438	119.2566	-12.8024	1E-4
1.275027E+2	128.7517	128.7701	-18.3712	1E-4
1.198482E+2	138.0231	138.0366	-13.4887	1E-4
1.125266E+2	148.0520	148.0676	-15.6304	1E-4
1.063240E+2	157.6283	157.6385	-10.1918	1E-4
1.009294E+2	166.9281	166.9180	10.0893	1E-4
9.603617E+1	176.2482	176.2438	4.3820	1E-4
9.097323E+1	186.9913	186.9693	22.0410	1E-4
8.683475E+1	196.7117	196.6944	17.2547	1E-4
8.412472E+1	203.6143	203.6031	11.1720	1E-4
8.071053E+1	213.0163	213.0016	14.6797	1E-4
7.448211E+1	232.4885	232.5104	-21.8572	1E-4
7.129768E+1	243.8807	243.8986	-17.9465	1E-4
6.879737E+1	253.6131	253.6391	-25.9749	1E-4
6.498079E+1	270.0789	270.0876	-8.6862	1E-4
6.095661E+1	289.9760	289.9398	36.1810	1E-4
5.918425E+1	299.7279	299.6955	32.4174	1E-4
5.733360E+1	310.6682	310.7034	-35.2304	1E-4
