**Manufacturer reference [X133066] 
=> Used on CM08 [TT22]**


Thermometre :	CX_LS_X133066
Environment :	VA
Date :	25/01/2019
Function :	 logT = Sum ( Ai / logR^i )
Coefficients :	
A0=	1.233692673904692E+3
A1=	-17.563467437315645E+3
A2=	95.767901596423791E+3
A3=	-204.038984571709530E+3
A4=	-214.721609302844330E+3
A5=	2.272890171487427E+6
A6=	-5.730789821846428E+6
A7=	7.422628230601884E+6
A8=	-5.057326566949247E+6
A9=	1.441224588010089E+6
Rmes(Ohm)	Tmes(K)	Tfit(K)	dT(mK)	Courant(A)
7.902735E+2	9.9338	9.9374	-3.5843	1E-5
7.355665E+2	10.9393	10.9360	3.2945	1E-5
6.903638E+2	11.9317	11.9275	4.1582	1E-5
6.517848E+2	12.9238	12.9215	2.3279	1E-5
6.183736E+2	13.9154	13.9154	0.0165	1E-5
5.890189E+2	14.9088	14.9099	-1.1203	1E-5
5.604789E+2	16.0016	16.0049	-3.3429	1E-5
5.372482E+2	17.0006	17.0047	-4.0784	1E-5
5.162725E+2	17.9997	18.0036	-3.8598	1E-5
4.972202E+2	18.9976	19.0006	-3.0422	1E-5
4.797853E+2	19.9946	19.9974	-2.8450	1E-5
4.637416E+2	20.9930	20.9944	-1.4058	1E-5
4.487579E+2	22.0021	22.0023	-0.1580	1E-5
4.352236E+2	22.9838	22.9831	0.6671	1E-5
4.222175E+2	23.9975	23.9952	2.2794	1E-5
4.103744E+2	24.9860	24.9818	4.2154	1E-5
3.989357E+2	26.0050	25.9990	6.0207	1E-5
3.886498E+2	26.9779	26.9724	5.4702	1E-5
3.783975E+2	28.0092	28.0029	6.3063	1E-5
3.078077E+2	37.2284	37.2274	0.9666	1E-5
3.071279E+2	37.3397	37.3393	0.4106	1E-5
2.986001E+2	38.7875	38.7901	-2.5550	1E-5
2.978871E+2	38.9136	38.9155	-1.8811	1E-5
2.363133E+2	52.8843	52.8982	-13.8503	1E-5
2.360134E+2	52.9734	52.9857	-12.2903	1E-5
2.106536E+2	61.3591	61.3625	-3.4368	1E-5
1.880067E+2	70.9104	70.9028	7.5707	1E-5
1.684452E+2	81.3676	81.3492	18.4479	1E-4
1.414548E+2	100.7836	100.7647	18.8860	1E-4
1.298580E+2	111.6771	111.6706	6.4593	1E-4
1.217462E+2	120.5526	120.5555	-2.9091	1E-4
1.143055E+2	129.8123	129.8241	-11.8236	1E-4
1.076772E+2	139.1394	139.1644	-24.9994	1E-4
1.003883E+2	150.8443	150.8650	-20.6606	1E-4
9.572042E+1	159.2894	159.3009	-11.5256	1E-4
8.688664E+1	177.8016	177.7913	10.2985	1E-4
8.159455E+1	190.8735	190.8503	23.1875	1E-4
7.876325E+1	198.6193	198.5931	26.1909	1E-4
7.547260E+1	208.3892	208.3672	22.0385	1E-4
7.243387E+1	218.2457	218.2383	7.3890	1E-4
6.703947E+1	238.1382	238.1541	-15.9072	1E-4
6.427195E+1	249.7533	249.7908	-37.4509	1E-4
6.269638E+1	256.8922	256.9205	-28.2889	1E-4
5.974993E+1	271.3634	271.3776	-14.1812	1E-4
5.818598E+1	279.7231	279.7249	-1.7935	1E-4
5.632448E+1	290.4072	290.3668	40.4224	1E-4
5.531856E+1	296.5125	296.4785	33.9618	1E-4
5.479135E+1	299.8183	299.7943	24.0393	1E-4
5.310547E+1	310.9339	310.9820	-48.0538	1E-4
