**Manufacturer reference [X133186] 
=> Used on CM08 [TT06]**


Thermometre :	CX_LS_X133186
Environment :	VA
Date :	25/01/2019
Function :	 logT = Sum ( Ai / logR^i )
Coefficients :	
A0=	1.013076297289426E+3
A1=	-12.118114503284651E+3
A2=	41.476288201904346E+3
A3=	92.455104705465914E+3
A4=	-1.207389997173535E+6
A5=	4.402020460298395E+6
A6=	-8.665438314594226E+6
A7=	9.928399239795422E+6
A8=	-6.255429060671494E+6
A9=	1.683463189797597E+6
Rmes(Ohm)	Tmes(K)	Tfit(K)	dT(mK)	Courant(A)
6.729666E+2	9.9340	9.9375	-3.5389	1E-5
6.279503E+2	10.9394	10.9366	2.8357	1E-5
5.907183E+2	11.9317	11.9267	4.9867	1E-5
5.587880E+2	12.9239	12.9217	2.2345	1E-5
5.311041E+2	13.9155	13.9157	-0.1640	1E-5
5.067246E+2	14.9092	14.9107	-1.5038	1E-5
4.830143E+2	16.0014	16.0045	-3.1298	1E-5
4.636403E+2	17.0012	17.0053	-4.0705	1E-5
4.461322E+2	18.0004	18.0045	-4.1222	1E-5
4.302190E+2	18.9981	19.0012	-3.0883	1E-5
4.156218E+2	19.9959	19.9986	-2.7111	1E-5
4.021751E+2	20.9951	20.9960	-0.9086	1E-5
3.896662E+2	21.9974	21.9989	-1.5376	1E-5
3.782113E+2	22.9897	22.9874	2.2529	1E-5
3.673418E+2	23.9951	23.9935	1.5503	1E-5
3.573345E+2	24.9890	24.9840	4.9684	1E-5
3.477584E+2	25.9994	25.9947	4.6878	1E-5
3.390021E+2	26.9843	26.9774	6.9236	1E-5
3.304240E+2	28.0044	27.9988	5.5700	1E-5
2.704242E+2	37.2572	37.2564	0.7687	1E-5
2.698671E+2	37.3674	37.3643	3.0562	1E-5
2.625673E+2	38.8225	38.8257	-3.2383	1E-5
2.620131E+2	38.9375	38.9404	-2.9045	1E-5
2.094415E+2	52.9160	52.9286	-12.5645	1E-5
2.092325E+2	52.9855	52.9998	-14.2595	1E-5
1.873943E+2	61.3970	61.4047	-7.6558	1E-5
1.678548E+2	70.9759	70.9680	7.8741	1E-5
1.508809E+2	81.4996	81.4715	28.0740	1E-4
1.274994E+2	100.9005	100.8818	18.7177	1E-4
1.174488E+2	111.7364	111.7367	-0.3477	1E-4
1.103734E+2	120.6059	120.6108	-4.8803	1E-4
1.038623E+2	129.8653	129.8784	-13.0644	1E-4
9.805291E+1	139.1888	139.2139	-25.1427	1E-4
9.164675E+1	150.8975	150.9176	-20.0824	1E-4
8.753745E+1	159.3440	159.3548	-10.7615	1E-4
7.972510E+1	177.9193	177.8987	20.6451	1E-4
7.507648E+1	190.8992	190.8754	23.8224	1E-4
7.257038E+1	198.6392	198.6142	25.0270	1E-4
6.966459E+1	208.3651	208.3474	17.7372	1E-4
6.696820E+1	218.2158	218.2113	4.4584	1E-4
6.217102E+1	238.1026	238.1229	-20.2817	1E-4
5.970812E+1	249.7085	249.7458	-37.3138	1E-4
5.830389E+1	256.8436	256.8712	-27.6145	1E-4
5.567931E+1	271.2870	271.2979	-10.9213	1E-4
5.428883E+1	279.6122	279.6039	8.3403	1E-4
5.262596E+1	290.2662	290.2366	29.5832	1E-4
5.170772E+1	296.5118	296.4776	34.1550	1E-4
5.125702E+1	299.6738	299.6480	25.8091	1E-4
4.974883E+1	310.7865	310.8348	-48.2922	1E-4
