**Manufacturer reference [X133185] 
=> Used on CM08 [TT12]**


Thermometre :	CX_LS_X133185
Environment :	VA
Date :	25/01/2019
Function :	 logT = Sum ( Ai / logR^i )
Coefficients :	
A0=	1.495955873515600E+3
A1=	-23.124136062516554E+3
A2=	147.654008898956380E+3
A3=	-483.868042671493490E+3
A4=	747.152925651272530E+3
A5=	86.324379064074819E+3
A6=	-2.442001179759565E+6
A7=	4.265230905998712E+6
A8=	-3.300988454356750E+6
A9=	1.009785419472326E+6
Rmes(Ohm)	Tmes(K)	Tfit(K)	dT(mK)	Courant(A)
7.960154E+2	9.9340	9.9377	-3.6652	1E-5
7.405096E+2	10.9394	10.9361	3.2795	1E-5
6.946739E+2	11.9317	11.9277	4.0395	1E-5
6.556148E+2	12.9239	12.9206	3.2884	1E-5
6.217348E+2	13.9155	13.9156	-0.1318	1E-5
5.919922E+2	14.9092	14.9111	-1.8636	1E-5
5.631547E+2	16.0014	16.0045	-3.0788	1E-5
5.396262E+2	17.0011	17.0055	-4.3842	1E-5
5.184124E+2	18.0004	18.0046	-4.2090	1E-5
4.991643E+2	18.9981	19.0012	-3.0849	1E-5
4.815381E+2	19.9959	19.9985	-2.5699	1E-5
4.653243E+2	20.9950	20.9959	-0.8761	1E-5
4.502599E+2	21.9975	21.9991	-1.5953	1E-5
4.364899E+2	22.9895	22.9875	1.9907	1E-5
4.234407E+2	23.9952	23.9936	1.6371	1E-5
4.114428E+2	24.9889	24.9839	4.9528	1E-5
3.999739E+2	25.9995	25.9947	4.7657	1E-5
3.895022E+2	26.9842	26.9772	6.9634	1E-5
3.792544E+2	28.0045	27.9986	5.8801	1E-5
3.079216E+2	37.2565	37.2555	0.9504	1E-5
3.072612E+2	37.3668	37.3636	3.1736	1E-5
2.986265E+2	38.8217	38.8250	-3.2963	1E-5
2.979715E+2	38.9368	38.9396	-2.8362	1E-5
2.360961E+2	52.9152	52.9281	-12.8905	1E-5
2.358497E+2	52.9852	52.9997	-14.5357	1E-5
2.103198E+2	61.3961	61.4041	-7.9936	1E-5
1.875715E+2	70.9743	70.9664	7.8966	1E-5
1.678908E+2	81.4963	81.4676	28.6640	1E-4
1.409138E+2	100.8976	100.8777	19.8781	1E-4
1.293714E+2	111.7349	111.7365	-1.6045	1E-4
1.212719E+2	120.6046	120.6112	-6.6412	1E-4
1.138388E+2	129.8639	129.8772	-13.2501	1E-4
1.072223E+2	139.1876	139.2113	-23.6734	1E-4
9.994344E+1	150.8962	150.9141	-17.8821	1E-4
9.528373E+1	159.3426	159.3521	-9.5494	1E-4
8.644782E+1	177.9164	177.8970	19.3574	1E-4
8.120322E+1	190.8986	190.8768	21.7810	1E-4
7.838089E+1	198.6387	198.6156	23.1396	1E-4
7.511219E+1	208.3657	208.3491	16.6466	1E-4
7.208328E+1	218.2165	218.2120	4.5037	1E-4
6.670432E+1	238.1034	238.1207	-17.3240	1E-4
6.394730E+1	249.7096	249.7445	-34.9478	1E-4
6.237714E+1	256.8448	256.8701	-25.2981	1E-4
5.944506E+1	271.2889	271.3005	-11.5679	1E-4
5.789322E+1	279.6150	279.6092	5.7917	1E-4
5.603876E+1	290.2697	290.2451	24.6046	1E-4
5.501774E+1	296.5119	296.4720	39.9041	1E-4
5.451334E+1	299.6774	299.6561	21.2605	1E-4
5.283396E+1	310.7901	310.8357	-45.6145	1E-4
