**Manufacturer reference [X133155] 
=> Used on CM08 [TT07]**


Thermometre :	CX_LS_X133155
Environment :	VA
Date :	20/12/2018
Function :	 logT = Sum ( Ai / logR^i )
Coefficients :	
A0=	165.747037639084960E+0
A1=	4.049274982075081E+3
A2=	-98.200276485546608E+3
A3=	809.068174920881520E+3
A4=	-3.607997681632685E+6
A5=	9.829962868891630E+6
A6=	-16.920014543571603E+6
A7=	18.042299685628686E+6
A8=	-10.919281211104531E+6
A9=	2.874912720030134E+6
Rmes(Ohm)	Tmes(K)	Tfit(K)	dT(mK)	Courant(A)
8.017850E+2	9.9348	9.9379	-3.1182	1E-5
7.458939E+2	10.9409	10.9380	2.8641	1E-5
6.997967E+2	11.9330	11.9294	3.6365	1E-5
6.604681E+2	12.9254	12.9229	2.5051	1E-5
6.263716E+2	13.9180	13.9178	0.1852	1E-5
5.964503E+2	14.9107	14.9126	-1.9178	1E-5
5.673949E+2	16.0034	16.0070	-3.5917	1E-5
5.437301E+2	17.0034	17.0071	-3.7139	1E-5
5.223691E+2	18.0026	18.0065	-3.8583	1E-5
5.029847E+2	19.0010	19.0034	-2.4250	1E-5
4.852395E+2	19.9991	20.0008	-1.6936	1E-5
4.688965E+2	20.9987	20.9995	-0.8387	1E-5
4.538249E+2	21.9967	21.9964	0.2632	1E-5
4.398359E+2	22.9958	22.9938	1.9611	1E-5
4.268125E+2	23.9946	23.9912	3.4318	1E-5
4.146427E+2	24.9932	24.9889	4.2848	1E-5
4.032422E+2	25.9916	25.9866	4.9606	1E-5
3.925004E+2	26.9937	26.9875	6.1588	1E-5
3.162648E+2	36.3300	36.3301	-0.0949	1E-5
3.154913E+2	36.4517	36.4508	0.9492	1E-5
2.972250E+2	39.4965	39.5009	-4.3724	1E-5
2.407642E+2	52.1393	52.1565	-17.2309	1E-5
2.126105E+2	61.1978	61.2062	-8.4214	1E-5
1.917012E+2	69.7844	69.7795	4.9358	1E-5
1.710727E+2	80.4455	80.4293	16.1505	1E-4
1.548790E+2	90.9020	90.8864	15.6089	1E-4
1.464317E+2	97.3064	97.2967	9.7075	1E-4
1.309887E+2	111.2111	111.2130	-1.9488	1E-4
1.234461E+2	119.2881	119.2963	-8.2446	1E-4
1.158379E+2	128.5115	128.5237	-12.1507	1E-4
1.092617E+2	137.5170	137.5374	-20.3511	1E-4
1.026086E+2	147.8164	147.8344	-17.9598	1E-4
9.674705E+1	158.0838	158.0863	-2.4629	1E-4
9.240032E+1	166.5466	166.5393	7.2610	1E-4
8.769316E+1	176.6743	176.6599	14.3544	1E-4
8.337374E+1	187.0098	186.9869	22.9442	1E-4
7.980577E+1	196.4209	196.3992	21.7259	1E-4
7.713372E+1	204.0546	204.0501	4.5330	1E-4
7.424718E+1	212.9757	212.9732	2.5263	1E-4
7.412635E+1	213.3612	213.3628	-1.6486	1E-4
7.405330E+1	213.6020	213.5991	2.9081	1E-4
6.874399E+1	232.1856	232.2131	-27.4665	1E-4
6.596825E+1	243.1997	243.2309	-31.1551	1E-4
6.361907E+1	253.3505	253.3706	-20.1038	1E-4
6.030847E+1	269.1622	269.1405	21.7230	1E-4
5.998497E+1	270.7974	270.7865	10.9023	1E-4
5.632760E+1	291.0081	290.9679	40.1584	1E-4
5.541116E+1	296.5671	296.5560	11.1151	1E-4
5.477699E+1	300.5313	300.5743	-43.0049	1E-4
