**Manufacturer reference [X135382] 
=> Used on CM03 [TT05]**


Thermometre :	CX_LS_X135382
Environment :	VA
Date :	06/02/2020
Function :	 logT = Sum ( Ai / logR^i )
Coefficients :	
A0=	-1.180614323123956E+3
A1=	32.563743345046914E+3
A2=	-368.787765217644740E+3
A3=	2.314913005405782E+6
A4=	-9.009584223331274E+6
A5=	22.751853827451009E+6
A6=	-37.497086948851697E+6
A7=	39.044886865799516E+6
A8=	-23.373955159803331E+6
A9=	6.141811764470622E+6
Rmes(Ohm)	Tmes(K)	Tfit(K)	dT(mK)	Courant(A)
9.614838E+2	9.9294	9.9327	-3.2978	1E-5
8.927402E+2	10.9377	10.9354	2.3050	1E-5
8.364627E+2	11.9298	11.9249	4.8575	1E-5
7.884695E+2	12.9217	12.9188	2.8883	1E-5
7.470354E+2	13.9136	13.9123	1.3222	1E-5
7.107335E+2	14.9027	14.9061	-3.4151	1E-5
6.755598E+2	15.9954	15.9992	-3.8442	1E-5
6.469012E+2	16.9970	17.0006	-3.5944	1E-5
6.210986E+2	17.9954	18.0004	-5.0420	1E-5
5.977393E+2	18.9942	18.9971	-2.9423	1E-5
5.763905E+2	19.9919	19.9940	-2.1424	1E-5
5.567373E+2	20.9924	20.9932	-0.8451	1E-5
5.386234E+2	21.9910	21.9914	-0.3615	1E-5
5.218516E+2	22.9905	22.9888	1.7304	1E-5
5.065777E+2	23.9671	23.9647	2.3835	1E-5
4.920735E+2	24.9615	24.9570	4.4644	1E-5
4.784375E+2	25.9594	25.9537	5.7063	1E-5
4.654445E+2	26.9705	26.9661	4.4006	1E-5
4.532817E+2	27.9791	27.9742	4.8741	1E-5
4.418555E+2	28.9829	28.9791	3.8222	1E-5
3.766848E+2	36.0427	36.0422	0.5066	1E-5
3.507559E+2	39.6670	39.6737	-6.7304	1E-5
2.835449E+2	52.5114	52.5332	-21.8056	1E-5
2.518614E+2	61.2017	61.2139	-12.2312	1E-5
2.265074E+2	70.0628	70.0594	3.3615	1E-5
2.038605E+2	79.9854	79.9614	23.9530	1E-4
1.835849E+2	91.0530	91.0302	22.7894	1E-4
1.698487E+2	100.1194	100.1028	16.5507	1E-4
1.562564E+2	110.7002	110.7030	-2.7718	1E-4
1.468574E+2	119.1893	119.2044	-15.1384	1E-4
1.376116E+2	128.6898	128.7128	-23.0093	1E-4
1.296557E+2	137.9697	137.9852	-15.5171	1E-4
1.220244E+2	147.9992	148.0176	-18.4244	1E-4
1.155358E+2	157.5793	157.5938	-14.4977	1E-4
1.098740E+2	166.8901	166.8818	8.2924	1E-4
1.047328E+2	176.2161	176.2005	15.5791	1E-4
9.938949E+1	186.9606	186.9358	24.7618	1E-4
9.500869E+1	196.6952	196.6743	20.9294	1E-4
9.211657E+1	203.6525	203.6366	15.8819	1E-4
8.848976E+1	213.0646	213.0493	15.2729	1E-4
8.186166E+1	232.5362	232.5608	-24.6014	1E-4
7.845884E+1	243.9346	243.9593	-24.6801	1E-4
7.577996E+1	253.6809	253.7129	-31.9726	1E-4
7.167759E+1	270.1786	270.1944	-15.7540	1E-4
6.734356E+1	290.1087	290.0600	48.7321	1E-4
6.542899E+1	299.8773	299.8315	45.7865	1E-4
6.344038E+1	310.7420	310.7906	-48.5557	1E-4
