**Manufacturer reference [X135381] 
=> Used on CM03 [TT04]**


Thermometre :	CX_LS_X135381
Environment :	VA
Date :	06/02/2020
Function :	 logT = Sum ( Ai / logR^i )
Coefficients :	
A0=	-764.077112209807750E+0
A1=	23.517474470992911E+3
A2=	-282.225666674395850E+3
A3=	1.835659398712632E+6
A4=	-7.316747205307932E+6
A5=	18.793740930711407E+6
A6=	-31.368251093782984E+6
A7=	32.982261409180436E+6
A8=	-19.896283810005747E+6
A9=	5.260165405738412E+6
Rmes(Ohm)	Tmes(K)	Tfit(K)	dT(mK)	Courant(A)
9.719431E+2	9.9294	9.9326	-3.2344	1E-5
9.017325E+2	10.9377	10.9349	2.8178	1E-5
8.442149E+2	11.9298	11.9259	3.8776	1E-5
7.953215E+2	12.9217	12.9191	2.5769	1E-5
7.531174E+2	13.9136	13.9125	1.0910	1E-5
7.161920E+2	14.9027	14.9056	-2.8605	1E-5
6.804047E+2	15.9954	15.9988	-3.4272	1E-5
6.512865E+2	16.9969	16.9995	-2.6345	1E-5
6.250530E+2	17.9953	18.0000	-4.6573	1E-5
6.013145E+2	18.9942	18.9974	-3.1674	1E-5
5.796280E+2	19.9919	19.9951	-3.2400	1E-5
5.597139E+2	20.9924	20.9932	-0.7773	1E-5
5.413499E+2	21.9909	21.9911	-0.1506	1E-5
5.243473E+2	22.9904	22.9886	1.7956	1E-5
5.088702E+2	23.9672	23.9647	2.5294	1E-5
4.941761E+2	24.9614	24.9573	4.0827	1E-5
4.803696E+2	25.9592	25.9541	5.0702	1E-5
4.672312E+2	26.9704	26.9657	4.6557	1E-5
4.549239E+2	27.9790	27.9741	4.8728	1E-5
4.433652E+2	28.9828	28.9793	3.4706	1E-5
3.775541E+2	36.0418	36.0411	0.6759	1E-5
3.514052E+2	39.6663	39.6728	-6.4766	1E-5
2.837429E+2	52.5110	52.5326	-21.6386	1E-5
2.519094E+2	61.2010	61.2130	-11.9943	1E-5
2.264646E+2	70.0611	70.0573	3.7933	1E-5
2.037627E+2	79.9796	79.9547	24.8743	1E-4
1.834393E+2	91.0484	91.0260	22.3570	1E-4
1.696781E+2	100.1169	100.1022	14.7147	1E-4
1.560735E+2	110.6980	110.7026	-4.6153	1E-4
1.466719E+2	119.1867	119.2028	-16.0710	1E-4
1.374274E+2	128.6868	128.7090	-22.1896	1E-4
1.294737E+2	137.9671	137.9809	-13.8215	1E-4
1.218465E+2	147.9967	148.0128	-16.1022	1E-4
1.153618E+2	157.5770	157.5897	-12.6881	1E-4
1.097036E+2	166.8883	166.8791	9.1826	1E-4
1.045656E+2	176.2146	176.1998	14.8208	1E-4
9.922623E+1	186.9592	186.9358	23.4382	1E-4
9.484807E+1	196.6945	196.6752	19.3099	1E-4
9.195625E+1	203.6543	203.6411	13.1872	1E-4
8.833138E+1	213.0669	213.0537	13.2211	1E-4
8.170660E+1	232.5385	232.5620	-23.4570	1E-4
7.830491E+1	243.9372	243.9590	-21.8325	1E-4
7.562644E+1	253.6839	253.7130	-29.0821	1E-4
7.152399E+1	270.1834	270.1983	-14.9235	1E-4
6.718921E+1	290.1150	290.0700	45.0248	1E-4
6.527406E+1	299.8844	299.8416	42.7959	1E-4
6.328518E+1	310.7455	310.7907	-45.2175	1E-4
