**Manufacturer reference [X133107] 
=> Used on CM12 [TT04]**


Thermometre :	CX_LS_X133107
Environment :	VA
Date :	15/04/2019
Function :	 logT = Sum ( Ai / logR^i )
Coefficients :	
A0=	1.083952695173867E+3
A1=	-12.896802093354940E+3
A2=	44.029736021792218E+3
A3=	95.690255105837568E+3
A4=	-1.255014812434371E+6
A5=	4.555411804062234E+6
A6=	-8.920924148452690E+6
A7=	10.166252057723036E+6
A8=	-6.370605717789403E+6
A9=	1.705181533112557E+6
Rmes(Ohm)	Tmes(K)	Tfit(K)	dT(mK)	Courant(A)
6.372134E+2	9.9296	9.9331	-3.5375	1E-5
5.953574E+2	10.9371	10.9338	3.2881	1E-5
5.607299E+2	11.9283	11.9244	3.8983	1E-5
5.310284E+2	12.9209	12.9184	2.4503	1E-5
5.051847E+2	13.9141	13.9138	0.3106	1E-5
4.824610E+2	14.9061	14.9074	-1.3130	1E-5
4.602759E+2	15.9996	16.0026	-2.9879	1E-5
4.421183E+2	17.0009	17.0053	-4.3797	1E-5
4.257295E+2	18.0007	18.0044	-3.6556	1E-5
4.108130E+2	18.9979	19.0013	-3.4014	1E-5
3.971349E+2	19.9949	19.9977	-2.8494	1E-5
3.844720E+2	20.9967	20.9984	-1.6987	1E-5
3.727933E+2	21.9945	21.9951	-0.5679	1E-5
3.619576E+2	22.9904	22.9896	0.7985	1E-5
3.518233E+2	23.9893	23.9865	2.8105	1E-5
3.423242E+2	24.9885	24.9849	3.5891	1E-5
3.334351E+2	25.9854	25.9803	5.0641	1E-5
3.251507E+2	26.9723	26.9658	6.5063	1E-5
3.170916E+2	27.9875	27.9823	5.1545	1E-5
3.096241E+2	28.9835	28.9793	4.1832	1E-5
2.666836E+2	35.9740	35.9751	-1.1366	1E-5
2.497122E+2	39.4942	39.5008	-6.6073	1E-5
2.044818E+2	52.1262	52.1445	-18.3387	1E-5
1.817968E+2	61.1356	61.1441	-8.5421	1E-5
1.650140E+2	69.5634	69.5645	-1.0574	1E-5
1.482459E+2	80.0895	80.0660	23.5183	1E-4
1.344717E+2	90.8331	90.8172	15.9184	1E-4
1.251489E+2	99.5417	99.5296	12.1301	1E-4
1.155656E+2	110.0290	110.0313	-2.3356	1E-4
1.087810E+2	118.6308	118.6334	-2.6107	1E-4
1.023764E+2	127.8201	127.8358	-15.6798	1E-4
9.655343E+1	137.2725	137.2931	-20.5732	1E-4
9.107119E+1	147.3150	147.3334	-18.3927	1E-4
8.625911E+1	157.2189	157.2311	-12.1977	1E-4
8.222623E+1	166.4560	166.4527	3.3041	1E-4
7.852561E+1	175.8016	175.7883	13.2586	1E-4
7.486817E+1	185.9936	185.9771	16.4841	1E-4
7.160724E+1	196.0284	196.0043	24.1273	1E-4
6.935591E+1	203.5473	203.5245	22.8329	1E-4
6.674903E+1	212.9363	212.9274	8.8943	1E-4
6.235003E+1	230.7574	230.7743	-16.9273	1E-4
5.993068E+1	241.8110	241.8395	-28.5240	1E-4
5.788200E+1	251.9934	252.0243	-30.8703	1E-4
5.475493E+1	269.2452	269.2486	-3.4245	1E-4
5.144950E+1	290.1902	290.1513	38.9028	1E-4
4.956333E+1	303.7106	303.6696	41.0161	1E-4
4.857492E+1	311.2933	311.3402	-46.8539	1E-4
