**Manufacturer reference [X133087] 
=> Used on CM08 [TT08]**


Thermometre :	CX_LS_X133087
Environment :	VA
Date :	25/01/2019
Function :	 logT = Sum ( Ai / logR^i )
Coefficients :	
A0=	905.056899139633400E+0
A1=	-11.407468445902836E+3
A2=	46.055780677864030E+3
A3=	22.183888814403759E+3
A4=	-849.176956951153700E+3
A5=	3.393779270885834E+6
A6=	-6.941622712035377E+6
A7=	8.138361899777683E+6
A8=	-5.212704925853308E+6
A9=	1.421252130515494E+6
Rmes(Ohm)	Tmes(K)	Tfit(K)	dT(mK)	Courant(A)
7.395338E+2	9.9339	9.9374	-3.4880	1E-5
6.879538E+2	10.9394	10.9361	3.3031	1E-5
6.453655E+2	11.9317	11.9278	3.8662	1E-5
6.090635E+2	12.9239	12.9215	2.4308	1E-5
5.776349E+2	13.9155	13.9154	0.0528	1E-5
5.500239E+2	14.9089	14.9107	-1.8014	1E-5
5.232512E+2	16.0016	16.0042	-2.6449	1E-5
5.014305E+2	17.0008	17.0045	-3.6977	1E-5
4.817379E+2	17.9999	18.0040	-4.0965	1E-5
4.638781E+2	18.9978	19.0007	-2.9099	1E-5
4.475309E+2	19.9951	19.9978	-2.7391	1E-5
4.324955E+2	20.9937	20.9951	-1.4162	1E-5
4.184950E+2	22.0004	22.0007	-0.2664	1E-5
4.057771E+2	22.9860	22.9853	0.6988	1E-5
3.936437E+2	23.9966	23.9944	2.2380	1E-5
3.825434E+2	24.9871	24.9829	4.1791	1E-5
3.718783E+2	26.0029	25.9972	5.7351	1E-5
3.622228E+2	26.9803	26.9748	5.5428	1E-5
3.526813E+2	28.0074	28.0011	6.3242	1E-5
2.867298E+2	37.2390	37.2383	0.7465	1E-5
2.861054E+2	37.3499	37.3485	1.3661	1E-5
2.781379E+2	38.8004	38.8038	-3.3705	1E-5
2.774991E+2	38.9223	38.9244	-2.1355	1E-5
2.202063E+2	52.8960	52.9095	-13.5189	1E-5
2.199496E+2	52.9778	52.9901	-12.3459	1E-5
1.963638E+2	61.3730	61.3776	-4.6189	1E-5
1.753325E+2	70.9345	70.9262	8.2967	1E-5
1.571631E+2	81.4157	81.3941	21.6363	1E-4
1.321686E+2	100.8265	100.8078	18.7029	1E-4
1.214491E+2	111.6989	111.6963	2.6080	1E-4
1.139436E+2	120.5722	120.5765	-4.3240	1E-4
1.070573E+2	129.8317	129.8444	-12.7124	1E-4
1.009252E+2	139.1576	139.1822	-24.6416	1E-4
9.418155E+1	150.8639	150.8828	-18.9095	1E-4
8.986362E+1	159.3094	159.3188	-9.4089	1E-4
8.168493E+1	177.8449	177.8307	14.2145	1E-4
7.680236E+1	190.8829	190.8603	22.6072	1E-4
7.418425E+1	198.6267	198.6020	24.6562	1E-4
7.114543E+1	208.3803	208.3609	19.4020	1E-4
6.833553E+1	218.2348	218.2286	6.1662	1E-4
6.334601E+1	238.1251	238.1417	-16.5520	1E-4
6.078699E+1	249.7368	249.7729	-36.1434	1E-4
5.932978E+1	256.8744	256.9013	-26.9387	1E-4
5.660583E+1	271.3353	271.3510	-15.7085	1E-4
5.516208E+1	279.6827	279.6828	-0.0567	1E-4
5.344089E+1	290.3560	290.3228	33.1766	1E-4
5.250607E+1	296.5123	296.4658	46.4753	1E-4
5.202393E+1	299.7656	299.7454	20.1844	1E-4
5.046529E+1	310.8799	310.9301	-50.1836	1E-4
