**Manufacturer reference [X133036] 
=> Used on CM01 [TT06]**


Thermometre :	CX_LS_X133036
Environment :	VA
Date :	25/01/2019
Function :	 logT = Sum ( Ai / logR^i )
Coefficients :	
A0=	1.061928174773501E+3
A1=	-14.983046520883730E+3
A2=	78.769460072992151E+3
A3=	-138.388041042028690E+3
A4=	-384.277794665166410E+3
A5=	2.591652283877894E+6
A6=	-6.184004748213132E+6
A7=	7.890454895495168E+6
A8=	-5.362148074949113E+6
A9=	1.532394989765884E+6
Rmes(Ohm)	Tmes(K)	Tfit(K)	dT(mK)	Courant(A)
8.849274E+2	9.9338	9.9372	-3.3943	1E-5
8.218449E+2	10.9393	10.9364	2.9230	1E-5
7.698694E+2	11.9316	11.9280	3.6165	1E-5
7.256853E+2	12.9238	12.9200	3.8201	1E-5
6.873447E+2	13.9154	13.9158	-0.4059	1E-5
6.537868E+2	14.9087	14.9104	-1.6695	1E-5
6.212325E+2	16.0017	16.0048	-3.1315	1E-5
5.947599E+2	17.0003	17.0047	-4.3588	1E-5
5.708975E+2	17.9994	18.0034	-3.9513	1E-5
5.492510E+2	18.9974	19.0003	-2.8753	1E-5
5.294702E+2	19.9941	19.9967	-2.6311	1E-5
5.112925E+2	20.9921	20.9931	-1.0307	1E-5
4.942576E+2	22.0041	22.0051	-1.0439	1E-5
4.790475E+2	22.9814	22.9797	1.7060	1E-5
4.642837E+2	23.9984	23.9963	2.0615	1E-5
4.509488E+2	24.9848	24.9803	4.4523	1E-5
4.379915E+2	26.0073	26.0020	5.2724	1E-5
4.264758E+2	26.9753	26.9692	6.1308	1E-5
4.148698E+2	28.0112	28.0052	5.9972	1E-5
3.357718E+2	37.2166	37.2157	0.8736	1E-5
3.349966E+2	37.3282	37.3297	-1.5215	1E-5
3.254994E+2	38.7731	38.7742	-1.0792	1E-5
3.246649E+2	38.9037	38.9055	-1.7794	1E-5
2.560618E+2	52.8713	52.8852	-13.8839	1E-5
2.556973E+2	52.9684	52.9810	-12.5868	1E-5
2.276174E+2	61.3433	61.3450	-1.7009	1E-5
2.025970E+2	70.8835	70.8756	7.8853	1E-5
1.810723E+2	81.3129	81.2965	16.3713	1E-4
1.514013E+2	100.7354	100.7158	19.5538	1E-4
1.386751E+2	111.6525	111.6459	6.6326	1E-4
1.298078E+2	120.5307	120.5351	-4.4187	1E-4
1.216896E+2	129.7904	129.8058	-15.4128	1E-4
1.144744E+2	139.1189	139.1404	-21.4559	1E-4
1.065477E+2	150.8223	150.8398	-17.4602	1E-4
1.014785E+2	159.2670	159.2742	-7.2043	1E-4
9.190662E+1	177.7529	177.7474	5.5291	1E-4
8.616160E+1	190.8630	190.8428	20.1752	1E-4
8.310029E+1	198.6111	198.5860	25.1337	1E-4
7.953925E+1	208.3990	208.3782	20.7640	1E-4
7.625990E+1	218.2582	218.2509	7.3469	1E-4
7.044771E+1	238.1530	238.1651	-12.1393	1E-4
6.746878E+1	249.7717	249.8063	-34.6158	1E-4
6.577447E+1	256.9124	256.9379	-25.4532	1E-4
6.260610E+1	271.3950	271.4107	-15.6914	1E-4
6.092372E+1	279.7691	279.7778	-8.6883	1E-4
5.892625E+1	290.4654	290.4248	40.5994	1E-4
5.785868E+1	296.5128	296.4735	39.2700	1E-4
5.728185E+1	299.8773	299.8572	20.0916	1E-4
5.547571E+1	310.9948	311.0414	-46.6417	1E-4
