**Manufacturer reference [X138364] 
=> Used on CM10 [TT07]**


Thermometre :	CX_LS_X138364
Environment :	VA
Date :	06/02/2020
Function :	 logT = Sum ( Ai / logR^i )
Coefficients :	
A0=	565.734121365278040E+0
A1=	-7.772660209673822E+3
A2=	35.348611221313396E+3
A3=	-1.126057728358111E+3
A4=	-614.520767261519330E+3
A5=	2.742173286613223E+6
A6=	-6.077017943829803E+6
A7=	7.657472282275519E+6
A8=	-5.253039157254573E+6
A9=	1.530985563254704E+6
Rmes(Ohm)	Tmes(K)	Tfit(K)	dT(mK)	Courant(A)
1.340280E+3	9.9295	9.9325	-2.9727	1E-5
1.231804E+3	10.9377	10.9352	2.4613	1E-5
1.143608E+3	11.9297	11.9268	2.9485	1E-5
1.069337E+3	12.9218	12.9179	3.9235	1E-5
1.005412E+3	13.9137	13.9128	0.9174	1E-5
9.499205E+2	14.9027	14.9058	-3.0936	1E-5
8.965285E+2	15.9954	15.9977	-2.2706	1E-5
8.531010E+2	16.9976	17.0028	-5.1815	1E-5
8.144384E+2	17.9969	18.0011	-4.2140	1E-5
7.796414E+2	18.9941	18.9958	-1.7223	1E-5
7.479026E+2	19.9922	19.9940	-1.7932	1E-5
7.188359E+2	20.9926	20.9945	-1.8768	1E-5
6.922474E+2	21.9916	21.9912	0.4003	1E-5
6.676822E+2	22.9915	22.9897	1.7868	1E-5
6.455048E+2	23.9658	23.9625	3.2608	1E-5
6.243932E+2	24.9623	24.9584	3.8999	1E-5
6.046505E+2	25.9615	25.9577	3.7853	1E-5
5.860099E+2	26.9722	26.9677	4.4805	1E-5
5.685746E+2	27.9802	27.9766	3.6089	1E-5
5.522730E+2	28.9842	28.9813	2.9127	1E-5
4.604194E+2	36.0540	36.0538	0.1946	1E-5
4.245812E+2	39.6765	39.6833	-6.8451	1E-5
3.335715E+2	52.5168	52.5337	-16.8684	1E-5
2.916765E+2	61.2105	61.2174	-6.9199	1E-5
2.586566E+2	70.0842	70.0808	3.3513	1E-5
2.295189E+2	80.0604	80.0461	14.3371	1E-4
2.040544E+2	91.1118	91.0943	17.4980	1E-4
1.870498E+2	100.1512	100.1378	13.4311	1E-4
1.703813E+2	110.7285	110.7279	0.6184	1E-4
1.589612E+2	119.2227	119.2365	-13.7872	1E-4
1.478444E+2	128.7278	128.7458	-17.9836	1E-4
1.383757E+2	138.0023	138.0124	-10.0873	1E-4
1.293683E+2	148.0312	148.0469	-15.6641	1E-4
1.217793E+2	157.6090	157.6209	-11.9377	1E-4
1.152109E+2	166.9132	166.9036	9.6371	1E-4
1.092855E+2	176.2354	176.2223	13.1435	1E-4
1.031694E+2	186.9792	186.9608	18.3709	1E-4
9.819449E+1	196.7052	196.6916	13.5787	1E-4
9.493970E+1	203.6293	203.6208	8.4825	1E-4
9.086238E+1	213.0355	213.0223	13.2013	1E-4
8.346372E+1	232.5071	232.5260	-18.8788	1E-4
7.969734E+1	243.9015	243.9173	-15.7732	1E-4
7.674826E+1	253.6394	253.6636	-24.2353	1E-4
7.226084E+1	270.1174	270.1289	-11.4976	1E-4
6.755127E+1	290.0278	289.9937	34.0777	1E-4
6.548362E+1	299.7857	299.7505	35.2032	1E-4
6.333200E+1	310.6970	310.7329	-35.9228	1E-4
