**Manufacturer reference [X133157] 
=> Used on CM11 [TT06]**


Thermometre :	CX_LS_X133157
Environment :	VA
Date :	25/01/2019
Function :	 logT = Sum ( Ai / logR^i )
Coefficients :	
A0=	1.470316275566115E+3
A1=	-22.011561179976237E+3
A2=	133.701886190085380E+3
A3=	-396.706524806033120E+3
A4=	426.316076722195950E+3
A5=	828.765343755337760E+3
A6=	-3.536823804052137E+6
A7=	5.263868451775750E+6
A8=	-3.813543024379502E+6
A9=	1.122483403090553E+6
Rmes(Ohm)	Tmes(K)	Tfit(K)	dT(mK)	Courant(A)
7.437965E+2	9.9339	9.9375	-3.5543	1E-5
6.929685E+2	10.9394	10.9361	3.2733	1E-5
6.509302E+2	11.9317	11.9276	4.0917	1E-5
6.150101E+2	12.9239	12.9217	2.2166	1E-5
5.838793E+2	13.9155	13.9156	-0.0848	1E-5
5.565216E+2	14.9090	14.9095	-0.5081	1E-5
5.298790E+2	16.0015	16.0048	-3.3014	1E-5
5.081727E+2	17.0009	17.0050	-4.1302	1E-5
4.885634E+2	18.0001	18.0043	-4.2251	1E-5
4.707554E+2	18.9979	19.0011	-3.1526	1E-5
4.544394E+2	19.9953	19.9982	-2.8518	1E-5
4.394179E+2	20.9941	20.9954	-1.3048	1E-5
4.254285E+2	21.9996	22.0001	-0.4988	1E-5
4.126846E+2	22.9870	22.9858	1.1624	1E-5
4.005368E+2	23.9962	23.9944	1.8489	1E-5
3.894083E+2	24.9876	24.9829	4.6900	1E-5
3.787137E+2	26.0020	25.9966	5.3997	1E-5
3.690085E+2	26.9814	26.9753	6.1058	1E-5
3.594312E+2	28.0066	28.0006	5.9583	1E-5
2.929500E+2	37.2438	37.2428	0.9915	1E-5
2.923236E+2	37.3545	37.3523	2.1590	1E-5
2.842624E+2	38.8062	38.8095	-3.3494	1E-5
2.836257E+2	38.9263	38.9285	-2.2384	1E-5
2.255622E+2	52.9012	52.9150	-13.8472	1E-5
2.253108E+2	52.9799	52.9928	-12.8627	1E-5
2.013062E+2	61.3793	61.3849	-5.6118	1E-5
1.798599E+2	70.9455	70.9373	8.1814	1E-5
1.612890E+2	81.4378	81.4140	23.7836	1E-4
1.357073E+2	100.8460	100.8279	18.0847	1E-4
1.247224E+2	111.7086	111.7080	0.5696	1E-4
1.170190E+2	120.5811	120.5855	-4.4035	1E-4
1.099439E+2	129.8406	129.8520	-11.3628	1E-4
1.036386E+2	139.1657	139.1883	-22.6066	1E-4
9.669642E+1	150.8726	150.8909	-18.3062	1E-4
9.224793E+1	159.3185	159.3287	-10.1752	1E-4
8.381154E+1	177.8643	177.8514	12.9008	1E-4
7.877881E+1	190.8872	190.8656	21.5867	1E-4
7.607548E+1	198.6299	198.6064	23.4503	1E-4
7.293852E+1	208.3763	208.3570	19.2829	1E-4
7.003455E+1	218.2297	218.2228	6.8680	1E-4
6.487429E+1	238.1193	238.1349	-15.6047	1E-4
6.222663E+1	249.7293	249.7643	-34.9520	1E-4
6.071831E+1	256.8664	256.8925	-26.0600	1E-4
5.789887E+1	271.3224	271.3368	-14.3936	1E-4
5.640429E+1	279.6641	279.6635	0.6335	1E-4
5.462107E+1	290.3325	290.3019	30.6093	1E-4
5.364822E+1	296.5122	296.4700	42.2068	1E-4
5.315279E+1	299.7410	299.7208	20.2018	1E-4
5.153678E+1	310.8552	310.9021	-46.8871	1E-4
