**Manufacturer reference [X133173] 
=> Used on CM11 [TT04]**


Thermometre :	CX_LS_X133173
Environment :	VA
Date :	25/01/2019
Function :	 logT = Sum ( Ai / logR^i )
Coefficients :	
A0=	1.129300733980778E+3
A1=	-16.668196253056216E+3
A2=	96.652025830666767E+3
A3=	-245.423068254195470E+3
A4=	17.092597253101809E+3
A5=	1.608707913077243E+6
A6=	-4.606299922577415E+6
A7=	6.285900234031628E+6
A8=	-4.422107552671074E+6
A9=	1.290325536578416E+6
Rmes(Ohm)	Tmes(K)	Tfit(K)	dT(mK)	Courant(A)
8.895459E+2	9.9339	9.9373	-3.4335	1E-5
8.255432E+2	10.9394	10.9365	2.9354	1E-5
7.728492E+2	11.9317	11.9280	3.7022	1E-5
7.280644E+2	12.9239	12.9204	3.5328	1E-5
6.892607E+2	13.9155	13.9157	-0.1543	1E-5
6.552894E+2	14.9091	14.9104	-1.3328	1E-5
6.223707E+2	16.0015	16.0045	-2.9802	1E-5
5.955806E+2	17.0010	17.0052	-4.2421	1E-5
5.714472E+2	18.0002	18.0048	-4.5705	1E-5
5.495965E+2	18.9980	19.0011	-3.0549	1E-5
5.296063E+2	19.9955	19.9984	-2.9111	1E-5
5.112451E+2	20.9945	20.9957	-1.1745	1E-5
4.941921E+2	21.9988	21.9996	-0.7928	1E-5
4.786545E+2	22.9880	22.9866	1.3872	1E-5
4.639088E+2	23.9958	23.9938	2.0098	1E-5
4.503901E+2	24.9881	24.9835	4.6326	1E-5
4.374547E+2	26.0010	25.9956	5.4495	1E-5
4.256906E+2	26.9825	26.9763	6.1528	1E-5
4.141479E+2	28.0058	27.9996	6.2409	1E-5
3.343107E+2	37.2488	37.2481	0.7272	1E-5
3.335682E+2	37.3594	37.3569	2.4897	1E-5
3.239488E+2	38.8123	38.8158	-3.4756	1E-5
3.232013E+2	38.9305	38.9331	-2.5700	1E-5
2.544414E+2	52.9068	52.9199	-13.0571	1E-5
2.541553E+2	52.9819	52.9950	-13.0932	1E-5
2.259615E+2	61.3860	61.3920	-6.0342	1E-5
2.009146E+2	70.9568	70.9493	7.5152	1E-5
1.793321E+2	81.4609	81.4367	24.1680	1E-4
1.498300E+2	100.8664	100.8485	17.9075	1E-4
1.372479E+2	111.7190	111.7171	1.9371	1E-4
1.284448E+2	120.5904	120.5939	-3.4780	1E-4
1.203814E+2	129.8498	129.8614	-11.5767	1E-4
1.132155E+2	139.1743	139.1984	-24.0577	1E-4
1.053488E+2	150.8819	150.9016	-19.6707	1E-4
1.003214E+2	159.3278	159.3394	-11.5913	1E-4
9.081429E+1	177.8849	177.8691	15.8316	1E-4
8.517069E+1	190.8916	190.8698	21.8009	1E-4
8.214303E+1	198.6334	198.6090	24.4289	1E-4
7.863709E+1	208.3722	208.3530	19.2139	1E-4
7.539525E+1	218.2245	218.2182	6.3382	1E-4
6.964821E+1	238.1130	238.1303	-17.3352	1E-4
6.670714E+1	249.7216	249.7572	-35.6422	1E-4
6.503369E+1	256.8579	256.8844	-26.5462	1E-4
6.191074E+1	271.3094	271.3222	-12.8063	1E-4
6.025838E+1	279.6447	279.6407	4.0187	1E-4
5.828747E+1	290.3079	290.2774	30.5321	1E-4
5.720778E+1	296.5120	296.4771	34.9032	1E-4
5.666712E+1	299.7158	299.6919	23.8748	1E-4
5.488496E+1	310.8295	310.8757	-46.1671	1E-4
