**Manufacturer reference [X133158] 
=> Used on CM11 [TT12]**


Thermometre :	CX_LS_X133158
Environment :	VA
Date :	25/01/2019
Function :	 logT = Sum ( Ai / logR^i )
Coefficients :	
A0=	777.542706532292750E+0
A1=	-8.557837346401464E+3
A2=	18.821326198864237E+3
A3=	169.627144166936460E+3
A4=	-1.350458195638037E+6
A5=	4.508105071357657E+6
A6=	-8.565751897012426E+6
A7=	9.637957423735457E+6
A8=	-6.009790407391809E+6
A9=	1.607280109042504E+6
Rmes(Ohm)	Tmes(K)	Tfit(K)	dT(mK)	Courant(A)
7.123063E+2	9.9339	9.9373	-3.3949	1E-5
6.631587E+2	10.9394	10.9364	3.0288	1E-5
6.225633E+2	11.9317	11.9278	3.8648	1E-5
5.879136E+2	12.9239	12.9217	2.2484	1E-5
5.579333E+2	13.9155	13.9144	1.1060	1E-5
5.315130E+2	14.9090	14.9108	-1.8108	1E-5
5.059045E+2	16.0015	16.0046	-3.1119	1E-5
4.850229E+2	17.0009	17.0050	-4.0950	1E-5
4.661759E+2	18.0001	18.0042	-4.0951	1E-5
4.490686E+2	18.9979	19.0010	-3.0536	1E-5
4.334038E+2	19.9953	19.9981	-2.7828	1E-5
4.189901E+2	20.9941	20.9953	-1.2438	1E-5
4.055758E+2	21.9995	21.9999	-0.3851	1E-5
3.933544E+2	22.9871	22.9861	1.0198	1E-5
3.817208E+2	23.9961	23.9941	1.9693	1E-5
3.710579E+2	24.9877	24.9832	4.5216	1E-5
3.608255E+2	26.0018	25.9963	5.4649	1E-5
3.515323E+2	26.9815	26.9757	5.8084	1E-5
3.423771E+2	28.0065	28.0004	6.1110	1E-5
2.788779E+2	37.2446	37.2438	0.8138	1E-5
2.782815E+2	37.3553	37.3531	2.1544	1E-5
2.705939E+2	38.8072	38.8107	-3.5024	1E-5
2.699893E+2	38.9270	38.9292	-2.2346	1E-5
2.147156E+2	52.9021	52.9156	-13.5471	1E-5
2.144781E+2	52.9802	52.9929	-12.6767	1E-5
1.916690E+2	61.3804	61.3859	-5.5164	1E-5
1.713129E+2	70.9474	70.9394	7.9580	1E-5
1.537003E+2	81.4416	81.4185	23.0896	1E-4
1.294662E+2	100.8493	100.8312	18.1355	1E-4
1.190683E+2	111.7103	111.7076	2.6632	1E-4
1.117753E+2	120.5826	120.5858	-3.1622	1E-4
1.050785E+2	129.8421	129.8531	-10.9979	1E-4
9.911083E+1	139.1671	139.1918	-24.7293	1E-4
9.254335E+1	150.8741	150.8956	-21.4647	1E-4
8.833672E+1	159.3201	159.3331	-13.0218	1E-4
8.036286E+1	177.8676	177.8539	13.7277	1E-4
7.560952E+1	190.8880	190.8632	24.7739	1E-4
7.305630E+1	198.6305	198.6031	27.3999	1E-4
7.009376E+1	208.3756	208.3536	22.0134	1E-4
6.735100E+1	218.2289	218.2220	6.9099	1E-4
6.247847E+1	238.1182	238.1369	-18.7239	1E-4
5.997873E+1	249.7280	249.7668	-38.8090	1E-4
5.855467E+1	256.8650	256.8952	-30.1737	1E-4
5.589352E+1	271.3205	271.3352	-14.6898	1E-4
5.448290E+1	279.6609	279.6595	1.4213	1E-4
5.279978E+1	290.3285	290.2973	31.1707	1E-4
5.188253E+1	296.5121	296.4602	51.8631	1E-4
5.141454E+1	299.7369	299.7152	21.7313	1E-4
4.988966E+1	310.8510	310.9048	-53.7668	1E-4
