**Manufacturer reference [X133172] 
=> Used on CM11 [TT05]**


Thermometre :	CX_LS_X133172
Environment :	VA
Date :	25/01/2019
Function :	 logT = Sum ( Ai / logR^i )
Coefficients :	
A0=	-255.670080730209290E+0
A1=	12.557812328204382E+3
A2=	-172.338710315333710E+3
A3=	1.175492562932513E+6
A4=	-4.739906272888917E+6
A5=	12.091835795271454E+6
A6=	-19.831175447963517E+6
A7=	20.350508215562504E+6
A8=	-11.926784398464335E+6
A9=	3.053605632251697E+6
Rmes(Ohm)	Tmes(K)	Tfit(K)	dT(mK)	Courant(A)
7.238492E+2	9.9339	9.9370	-3.0712	1E-5
6.741494E+2	10.9394	10.9365	2.9237	1E-5
6.330698E+2	11.9317	11.9285	3.1604	1E-5
5.980558E+2	12.9239	12.9211	2.7524	1E-5
5.676561E+2	13.9155	13.9159	-0.3790	1E-5
5.409668E+2	14.9091	14.9104	-1.2567	1E-5
5.150536E+2	16.0015	16.0035	-2.0347	1E-5
4.938875E+2	17.0010	17.0049	-3.9318	1E-5
4.747993E+2	18.0002	18.0043	-4.0615	1E-5
4.574777E+2	18.9980	19.0008	-2.7531	1E-5
4.416078E+2	19.9955	19.9980	-2.5467	1E-5
4.270044E+2	20.9944	20.9954	-1.0306	1E-5
4.134186E+2	21.9989	21.9996	-0.6909	1E-5
4.010253E+2	22.9878	22.9866	1.2472	1E-5
3.892435E+2	23.9959	23.9940	1.9492	1E-5
3.784289E+2	24.9880	24.9837	4.3083	1E-5
3.680660E+2	26.0012	25.9960	5.2407	1E-5
3.586321E+2	26.9823	26.9767	5.6402	1E-5
3.493606E+2	28.0059	28.0002	5.7120	1E-5
2.849236E+2	37.2481	37.2479	0.2226	1E-5
2.843207E+2	37.3586	37.3568	1.7692	1E-5
2.765142E+2	38.8115	38.8155	-3.9742	1E-5
2.759076E+2	38.9299	38.9327	-2.7671	1E-5
2.198009E+2	52.9059	52.9182	-12.2975	1E-5
2.195651E+2	52.9816	52.9937	-12.1118	1E-5
1.963980E+2	61.3851	61.3893	-4.1692	1E-5
1.757250E+2	70.9551	70.9460	9.0767	1E-5
1.578362E+2	81.4576	81.4332	24.4031	1E-4
1.332478E+2	100.8635	100.8487	14.8469	1E-4
1.227080E+2	111.7175	111.7191	-1.6053	1E-4
1.153138E+2	120.5891	120.5951	-6.0358	1E-4
1.085245E+2	129.8485	129.8606	-12.1484	1E-4
1.024762E+2	139.1731	139.1956	-22.5044	1E-4
9.581931E+1	150.8806	150.8970	-16.3588	1E-4
9.155547E+1	159.3265	159.3336	-7.1046	1E-4
8.346978E+1	177.8819	177.8638	18.1186	1E-4
7.865509E+1	190.8910	190.8678	23.1943	1E-4
7.606740E+1	198.6329	198.6096	23.2698	1E-4
7.306695E+1	208.3728	208.3565	16.3149	1E-4
7.028902E+1	218.2252	218.2222	3.0243	1E-4
6.535431E+1	238.1139	238.1343	-20.4215	1E-4
6.282413E+1	249.7227	249.7598	-37.1485	1E-4
6.138318E+1	256.8591	256.8854	-26.2604	1E-4
5.869126E+1	271.3113	271.3215	-10.2125	1E-4
5.726566E+1	279.6475	279.6401	7.4162	1E-4
5.556422E+1	290.3114	290.2780	33.3944	1E-4
5.463187E+1	296.5121	296.4779	34.1879	1E-4
5.416453E+1	299.7194	299.6953	24.0856	1E-4
5.262419E+1	310.8332	310.8826	-49.4101	1E-4
