**Manufacturer reference [X133072] 
=> Used on CM11 [TT09]**


Thermometre :	CX_LS_X133072
Environment :	VA
Date :	25/01/2019
Function :	 logT = Sum ( Ai / logR^i )
Coefficients :	
A0=	1.081859893467716E+3
A1=	-14.453536509832984E+3
A2=	68.580130142738460E+3
A3=	-70.531296855821463E+3
A4=	-620.343560912738900E+3
A5=	3.060235028634152E+6
A6=	-6.697692862139561E+6
A7=	8.132364784873022E+6
A8=	-5.326874123264162E+6
A9=	1.476110886780093E+6
Rmes(Ohm)	Tmes(K)	Tfit(K)	dT(mK)	Courant(A)
7.472500E+2	9.9339	9.9375	-3.5688	1E-5
6.957889E+2	10.9393	10.9359	3.4014	1E-5
6.532321E+2	11.9317	11.9278	3.9399	1E-5
6.169218E+2	12.9238	12.9215	2.3409	1E-5
5.854611E+2	13.9154	13.9153	0.0697	1E-5
5.578043E+2	14.9089	14.9102	-1.2983	1E-5
5.309308E+2	16.0016	16.0047	-3.1107	1E-5
5.090347E+2	17.0006	17.0048	-4.1798	1E-5
4.892667E+2	17.9998	18.0037	-3.9129	1E-5
4.713126E+2	18.9977	19.0006	-2.9151	1E-5
4.548763E+2	19.9948	19.9975	-2.6705	1E-5
4.397460E+2	20.9932	20.9947	-1.5210	1E-5
4.256307E+2	22.0016	22.0016	-0.0100	1E-5
4.128487E+2	22.9846	22.9839	0.6954	1E-5
4.005959E+2	23.9972	23.9948	2.3603	1E-5
3.894153E+2	24.9864	24.9822	4.1781	1E-5
3.786352E+2	26.0043	25.9984	5.9257	1E-5
3.689166E+2	26.9787	26.9732	5.4673	1E-5
3.592550E+2	28.0086	28.0024	6.2062	1E-5
2.925918E+2	37.2320	37.2313	0.7396	1E-5
2.919536E+2	37.3431	37.3425	0.6272	1E-5
2.838917E+2	38.7918	38.7949	-3.1179	1E-5
2.832293E+2	38.9165	38.9183	-1.8114	1E-5
2.250527E+2	52.8882	52.9021	-13.9108	1E-5
2.247782E+2	52.9749	52.9869	-11.9834	1E-5
2.007941E+2	61.3637	61.3672	-3.4600	1E-5
1.793711E+2	70.9186	70.9104	8.2430	1E-5
1.608533E+2	81.3836	81.3643	19.3433	1E-4
1.353082E+2	100.7978	100.7802	17.5961	1E-4
1.243322E+2	111.6843	111.6797	4.6370	1E-4
1.166490E+2	120.5593	120.5622	-2.8733	1E-4
1.095979E+2	129.8187	129.8301	-11.4229	1E-4
1.033149E+2	139.1454	139.1697	-24.2680	1E-4
9.640277E+1	150.8508	150.8708	-20.0273	1E-4
9.197507E+1	159.2962	159.3071	-10.8723	1E-4
8.359029E+1	177.8159	177.8047	11.2260	1E-4
7.857088E+1	190.8766	190.8538	22.7517	1E-4
7.588286E+1	198.6218	198.5960	25.8312	1E-4
7.275919E+1	208.3862	208.3656	20.6175	1E-4
6.987299E+1	218.2421	218.2357	6.4488	1E-4
6.474802E+1	238.1339	238.1489	-15.0296	1E-4
6.211825E+1	249.7478	249.7835	-35.6697	1E-4
6.062070E+1	256.8863	256.9132	-26.8767	1E-4
5.781992E+1	271.3541	271.3706	-16.5248	1E-4
5.633389E+1	279.7097	279.7144	-4.6720	1E-4
5.456422E+1	290.3902	290.3567	33.4852	1E-4
5.360899E+1	296.5124	296.4614	50.9996	1E-4
5.310709E+1	299.8009	299.7814	19.5329	1E-4
5.150425E+1	310.9161	310.9671	-50.9750	1E-4
