**Manufacturer reference [X138084] 
=> Used on CM05 [TT22]**


Thermometre :	CX_LS_X138084
Environment :	VA
Date :	06/02/2020
Function :	 logT = Sum ( Ai / logR^i )
Coefficients :	
A0=	-1.435180103071463E+3
A1=	38.478046996337551E+3
A2=	-429.833801400594700E+3
A3=	2.681051402818747E+6
A4=	-10.412581400093399E+6
A5=	26.308838787929621E+6
A6=	-43.459136677427821E+6
A7=	45.413753700544566E+6
A8=	-27.308201483664099E+6
A9=	7.212706106488625E+6
Rmes(Ohm)	Tmes(K)	Tfit(K)	dT(mK)	Courant(A)
9.996646E+2	9.9294	9.9327	-3.3183	1E-5
9.282302E+2	10.9377	10.9343	3.3659	1E-5
8.695537E+2	11.9297	11.9263	3.3755	1E-5
8.196920E+2	12.9217	12.9193	2.3806	1E-5
7.765922E+2	13.9136	13.9131	0.4681	1E-5
7.388889E+2	14.9027	14.9058	-3.0869	1E-5
7.023787E+2	15.9954	15.9968	-1.4237	1E-5
6.724930E+2	16.9972	17.0010	-3.7858	1E-5
6.457139E+2	17.9958	17.9990	-3.1576	1E-5
6.213707E+2	18.9942	18.9979	-3.7346	1E-5
5.991950E+2	19.9920	19.9940	-1.9581	1E-5
5.787340E+2	20.9925	20.9946	-2.1033	1E-5
5.599156E+2	21.9911	21.9921	-0.9905	1E-5
5.424815E+2	22.9907	22.9894	1.2709	1E-5
5.266274E+2	23.9667	23.9639	2.8438	1E-5
5.115244E+2	24.9617	24.9578	3.9071	1E-5
4.973439E+2	25.9600	25.9549	5.1440	1E-5
4.838449E+2	26.9710	26.9667	4.2845	1E-5
4.712043E+2	27.9794	27.9746	4.7897	1E-5
4.593300E+2	28.9833	28.9792	4.1430	1E-5
3.915620E+2	36.0459	36.0449	0.9673	1E-5
3.646126E+2	39.6697	39.6763	-6.6130	1E-5
2.947592E+2	52.5129	52.5339	-20.9624	1E-5
2.618204E+2	61.2042	61.2153	-11.0649	1E-5
2.354516E+2	70.0689	70.0652	3.6697	1E-5
2.118732E+2	80.0062	79.9849	21.2888	1E-4
1.908153E+2	91.0692	91.0473	21.9281	1E-4
1.765510E+2	100.1281	100.1121	15.9805	1E-4
1.624255E+2	110.7082	110.7105	-2.3054	1E-4
1.526547E+2	119.1987	119.2137	-14.9928	1E-4
1.430453E+2	128.7004	128.7226	-22.2498	1E-4
1.347790E+2	137.9790	137.9936	-14.5691	1E-4
1.268503E+2	148.0083	148.0247	-16.4381	1E-4
1.201092E+2	157.5877	157.6001	-12.3895	1E-4
1.142279E+2	166.8967	166.8868	9.8796	1E-4
1.088820E+2	176.2215	176.2149	6.6020	1E-4
1.033373E+2	186.9658	186.9400	25.8323	1E-4
9.878811E+1	196.6980	196.6763	21.7001	1E-4
9.578787E+1	203.6460	203.6301	15.8502	1E-4
9.202175E+1	213.0563	213.0407	15.5716	1E-4
8.513804E+1	232.5281	232.5524	-24.3217	1E-4
8.160500E+1	243.9252	243.9492	-23.9832	1E-4
7.882411E+1	253.6687	253.7005	-31.8206	1E-4
7.456674E+1	270.1616	270.1761	-14.5049	1E-4
7.006951E+1	290.0860	290.0380	47.9969	1E-4
6.808334E+1	299.8511	299.8078	43.2951	1E-4
6.601851E+1	310.7297	310.7765	-46.7839	1E-4
