**Manufacturer reference [X138083] 
=> Used on CM05 [TT08]**


Thermometre :	CX_LS_X138083
Environment :	VA
Date :	06/02/2020
Function :	 logT = Sum ( Ai / logR^i )
Coefficients :	
A0=	-1.012757479377995E+3
A1=	28.538617212083656E+3
A2=	-327.648874624350920E+3
A3=	2.077178093997529E+6
A4=	-8.147704007411477E+6
A5=	20.709752969970293E+6
A6=	-34.324937031002447E+6
A7=	35.922631852531143E+6
A8=	-21.604037708198730E+6
A9=	5.700993626170905E+6
Rmes(Ohm)	Tmes(K)	Tfit(K)	dT(mK)	Courant(A)
1.005933E+3	9.9295	9.9320	-2.5320	1E-5
9.324111E+2	10.9377	10.9357	1.9767	1E-5
8.723343E+2	11.9297	11.9266	3.0828	1E-5
8.213146E+2	12.9218	12.9195	2.3449	1E-5
7.772882E+2	13.9137	13.9129	0.8045	1E-5
7.388350E+2	14.9027	14.9049	-2.2087	1E-5
7.016306E+2	15.9954	15.9957	-0.2785	1E-5
6.711597E+2	16.9974	17.0015	-4.0584	1E-5
6.439217E+2	17.9963	17.9998	-3.5246	1E-5
6.192362E+2	18.9941	18.9971	-3.0183	1E-5
5.966758E+2	19.9921	19.9957	-3.5653	1E-5
5.759672E+2	20.9925	20.9946	-2.1046	1E-5
5.568999E+2	21.9914	21.9923	-0.8828	1E-5
5.392532E+2	22.9911	22.9896	1.4902	1E-5
5.232336E+2	23.9663	23.9630	3.2567	1E-5
5.079394E+2	24.9620	24.9589	3.0952	1E-5
4.936264E+2	25.9606	25.9554	5.2243	1E-5
4.800075E+2	26.9715	26.9668	4.6715	1E-5
4.672522E+2	27.9797	27.9752	4.5248	1E-5
4.552747E+2	28.9837	28.9805	3.2393	1E-5
3.870976E+2	36.0494	36.0486	0.7860	1E-5
3.600757E+2	39.6727	39.6792	-6.4678	1E-5
2.902453E+2	52.5147	52.5336	-18.8955	1E-5
2.574201E+2	61.2069	61.2161	-9.1692	1E-5
2.311878E+2	70.0757	70.0720	3.6727	1E-5
2.077501E+2	80.0304	80.0128	17.6015	1E-4
1.869153E+2	91.0884	91.0687	19.7496	1E-4
1.728277E+2	100.1383	100.1237	14.5860	1E-4
1.588824E+2	110.7170	110.7187	-1.6796	1E-4
1.492422E+2	119.2094	119.2229	-13.4743	1E-4
1.397704E+2	128.7127	128.7323	-19.5506	1E-4
1.316305E+2	137.9894	138.0018	-12.4353	1E-4
1.238270E+2	148.0183	148.0335	-15.1883	1E-4
1.171966E+2	157.5970	157.6090	-11.9967	1E-4
1.114156E+2	166.9039	166.8943	9.5566	1E-4
1.061619E+2	176.2276	176.2229	4.7475	1E-4
1.007147E+2	186.9718	186.9486	23.2144	1E-4
9.624829E+1	196.7012	196.6823	18.8599	1E-4
9.330739E+1	203.6387	203.6242	14.4838	1E-4
8.961110E+1	213.0469	213.0317	15.2072	1E-4
8.285587E+1	232.5188	232.5407	-21.8555	1E-4
7.939015E+1	243.9147	243.9351	-20.4428	1E-4
7.666276E+1	253.6557	253.6847	-28.9851	1E-4
7.248834E+1	270.1417	270.1559	-14.2203	1E-4
6.807760E+1	290.0601	290.0173	42.8320	1E-4
6.612973E+1	299.8219	299.7824	39.4575	1E-4
6.410153E+1	310.7150	310.7570	-41.9587	1E-4
