**Manufacturer reference [X138367] 
=> Used on CM09 [TT04]**


Thermometre :	CX_LS_X138367
Environment :	VA
Date :	06/02/2020
Function :	 logT = Sum ( Ai / logR^i )
Coefficients :	
A0=	1.801428259879398E+3
A1=	-29.778998850014443E+3
A2=	209.944365763915790E+3
A3=	-814.730486178760770E+3
A4=	1.850708562900028E+6
A5=	-2.316870904821286E+6
A6=	980.297959833353060E+3
A7=	1.189610658576019E+6
A8=	-1.717953489473498E+6
A9=	654.433713673992430E+3
Rmes(Ohm)	Tmes(K)	Tfit(K)	dT(mK)	Courant(A)
8.624561E+2	9.9295	9.9321	-2.6368	1E-5
8.013721E+2	10.9377	10.9358	1.8716	1E-5
7.512571E+2	11.9297	11.9263	3.3986	1E-5
7.084841E+2	12.9218	12.9196	2.1675	1E-5
6.714825E+2	13.9137	13.9123	1.4010	1E-5
6.390203E+2	14.9028	14.9046	-1.7633	1E-5
6.074974E+2	15.9954	15.9962	-0.7532	1E-5
5.815965E+2	16.9977	17.0031	-5.3689	1E-5
5.584179E+2	17.9970	18.0012	-4.1660	1E-5
5.373957E+2	18.9941	18.9965	-2.4272	1E-5
5.181091E+2	19.9923	19.9948	-2.4801	1E-5
5.003582E+2	20.9926	20.9942	-1.5808	1E-5
4.839948E+2	21.9917	21.9918	-0.0613	1E-5
4.688032E+2	22.9916	22.9905	1.0546	1E-5
4.550330E+2	23.9657	23.9625	3.1848	1E-5
4.418362E+2	24.9624	24.9593	3.0914	1E-5
4.294509E+2	25.9617	25.9584	3.2910	1E-5
4.177033E+2	26.9724	26.9682	4.2100	1E-5
4.066785E+2	27.9803	27.9757	4.5746	1E-5
3.963074E+2	28.9844	28.9810	3.4224	1E-5
3.370586E+2	36.0553	36.0540	1.3152	1E-5
3.135236E+2	39.6776	39.6834	-5.8143	1E-5
2.525308E+2	52.5174	52.5347	-17.2558	1E-5
2.237813E+2	61.2115	61.2196	-8.0992	1E-5
2.007752E+2	70.0867	70.0842	2.5307	1E-5
1.801773E+2	80.0691	80.0562	12.8695	1E-4
1.619499E+2	91.1187	91.0993	19.3693	1E-4
1.496340E+2	100.1553	100.1389	16.3719	1E-4
1.374311E+2	110.7316	110.7322	-0.5686	1E-4
1.289991E+2	119.2266	119.2400	-13.4110	1E-4
1.207257E+2	128.7322	128.7519	-19.6836	1E-4
1.136293E+2	138.0061	138.0187	-12.6195	1E-4
1.068358E+2	148.0352	148.0479	-12.6962	1E-4
1.010736E+2	157.6125	157.6190	-6.5182	1E-4
9.605065E+1	166.9160	166.9121	3.8611	1E-4
9.150103E+1	176.2377	176.2304	7.2660	1E-4
8.678408E+1	186.9815	186.9586	22.9033	1E-4
8.292342E+1	196.7065	196.6900	16.5033	1E-4
8.038865E+1	203.6266	203.6168	9.7753	1E-4
7.720030E+1	213.0320	213.0193	12.6645	1E-4
7.138038E+1	232.5037	232.5260	-22.3105	1E-4
6.840130E+1	243.8976	243.9146	-16.9761	1E-4
6.606027E+1	253.6344	253.6583	-23.9155	1E-4
6.248400E+1	270.1103	270.1180	-7.7162	1E-4
5.871088E+1	290.0183	289.9833	35.0395	1E-4
5.704761E+1	299.7749	299.7443	30.5543	1E-4
5.531347E+1	310.6917	310.7256	-33.8805	1E-4
