**Manufacturer reference [X132662] 
=> Used on CM14 [TT04]**


Thermometre :	CX_LS_X132662
Environment :	VA
Date :	20/12/2018
Function :	 logT = Sum ( Ai / logR^i )
Coefficients :	
A0=	-38.499937742965095E+0
A1=	7.094678194990982E+3
A2=	-117.905604772623720E+3
A3=	882.696615302228600E+3
A4=	-3.788816316963566E+6
A5=	10.150878607849842E+6
A6=	-17.359083597023264E+6
A7=	18.495422513323266E+6
A8=	-11.223256913504668E+6
A9=	2.969497022572256E+6
Rmes(Ohm)	Tmes(K)	Tfit(K)	dT(mK)	Courant(A)
9.179852E+2	9.9348	9.9377	-2.9006	1E-5
8.508830E+2	10.9409	10.9382	2.6777	1E-5
7.957869E+2	11.9330	11.9296	3.4314	1E-5
7.489544E+2	12.9254	12.9231	2.3222	1E-5
7.084928E+2	13.9180	13.9178	0.1579	1E-5
6.730952E+2	14.9106	14.9125	-1.8553	1E-5
6.388182E+2	16.0033	16.0068	-3.4852	1E-5
6.109816E+2	17.0032	17.0067	-3.5131	1E-5
5.859132E+2	18.0024	18.0060	-3.5803	1E-5
5.632140E+2	19.0007	19.0030	-2.2808	1E-5
5.424828E+2	19.9986	20.0002	-1.5959	1E-5
5.234219E+2	20.9985	20.9991	-0.6353	1E-5
5.058808E+2	21.9965	21.9961	0.4469	1E-5
4.896284E+2	22.9955	22.9935	1.9668	1E-5
4.745275E+2	23.9940	23.9907	3.2943	1E-5
4.604401E+2	24.9923	24.9882	4.0517	1E-5
4.472650E+2	25.9902	25.9857	4.5266	1E-5
4.348572E+2	26.9931	26.9873	5.7927	1E-5
3.475139E+2	36.3160	36.3161	-0.0722	1E-5
3.466068E+2	36.4408	36.4401	0.7149	1E-5
3.257919E+2	39.4867	39.4914	-4.6593	1E-5
2.619027E+2	52.1268	52.1438	-17.0300	1E-5
2.302749E+2	61.1903	61.1971	-6.7696	1E-5
2.069193E+2	69.7744	69.7684	5.9729	1E-5
1.839989E+2	80.4242	80.4082	15.9792	1E-4
1.660695E+2	90.8793	90.8649	14.3651	1E-4
1.567438E+2	97.2859	97.2779	8.0284	1E-4
1.397609E+2	111.1907	111.1946	-3.9210	1E-4
1.314942E+2	119.2698	119.2796	-9.8462	1E-4
1.231792E+2	128.4906	128.5058	-15.1795	1E-4
1.160136E+2	137.4994	137.5127	-13.3294	1E-4
1.087752E+2	147.7981	147.8102	-12.1253	1E-4
1.024106E+2	158.0689	158.0662	2.7488	1E-4
9.768988E+1	166.5446	166.5418	2.8477	1E-4
9.260345E+1	176.6666	176.6568	9.8424	1E-4
8.794081E+1	187.0043	186.9854	18.9478	1E-4
8.409503E+1	196.4196	196.4005	19.1319	1E-4
8.122102E+1	204.0504	204.0474	3.0254	1E-4
7.811212E+1	212.9954	212.9893	6.1309	1E-4
7.798320E+1	213.3769	213.3764	0.5002	1E-4
7.791501E+1	213.5828	213.5817	1.0841	1E-4
7.221135E+1	232.1977	232.2225	-24.7617	1E-4
6.924458E+1	243.1938	243.2230	-29.2350	1E-4
6.673088E+1	253.3537	253.3722	-18.5182	1E-4
6.318834E+1	269.2075	269.1854	22.1168	1E-4
6.285119E+1	270.8015	270.7946	6.9048	1E-4
5.894925E+1	291.0447	291.0106	34.1343	1E-4
5.798282E+1	296.5666	296.5476	19.0489	1E-4
5.729866E+1	300.5764	300.6213	-44.9187	1E-4
