**Manufacturer reference [X133110] 
=> Used on CM14 [TT06]**


Thermometre :	CX_LS_X133110
Environment :	VA
Date :	15/04/2019
Function :	 logT = Sum ( Ai / logR^i )
Coefficients :	
A0=	1.153060512263432E+3
A1=	-16.021573486026298E+3
A2=	82.874730693560646E+3
A3=	-142.171371041154720E+3
A4=	-402.362186555191120E+3
A5=	2.645513406491166E+6
A6=	-6.214422094581450E+6
A7=	7.817140814657084E+6
A8=	-5.240065863276801E+6
A9=	1.477592205883211E+6
Rmes(Ohm)	Tmes(K)	Tfit(K)	dT(mK)	Courant(A)
7.836039E+2	9.9296	9.9330	-3.4436	1E-5
7.290928E+2	10.9370	10.9339	3.1391	1E-5
6.842104E+2	11.9283	11.9245	3.8192	1E-5
6.458767E+2	12.9209	12.9184	2.5247	1E-5
6.126342E+2	13.9141	13.9139	0.2198	1E-5
5.835208E+2	14.9061	14.9070	-0.9451	1E-5
5.551590E+2	15.9996	16.0029	-3.2939	1E-5
5.320412E+2	17.0009	17.0051	-4.2190	1E-5
5.112181E+2	18.0007	18.0043	-3.6355	1E-5
4.923151E+2	18.9979	19.0013	-3.4184	1E-5
4.750231E+2	19.9950	19.9978	-2.7515	1E-5
4.590512E+2	20.9967	20.9983	-1.6160	1E-5
4.443482E+2	21.9945	21.9951	-0.6463	1E-5
4.307343E+2	22.9905	22.9898	0.6842	1E-5
4.180282E+2	23.9893	23.9867	2.6348	1E-5
4.061399E+2	24.9886	24.9851	3.5242	1E-5
3.950349E+2	25.9855	25.9804	5.0512	1E-5
3.847027E+2	26.9726	26.9658	6.7608	1E-5
3.746664E+2	27.9876	27.9825	5.1446	1E-5
3.653801E+2	28.9836	28.9796	3.9662	1E-5
3.122688E+2	35.9753	35.9764	-1.1190	1E-5
2.914228E+2	39.4952	39.5016	-6.4283	1E-5
2.362763E+2	52.1270	52.1453	-18.2545	1E-5
2.088644E+2	61.1364	61.1446	-8.2446	1E-5
1.886954E+2	69.5658	69.5670	-1.1962	1E-5
1.686498E+2	80.0947	80.0721	22.5860	1E-4
1.522817E+2	90.8357	90.8193	16.4441	1E-4
1.412469E+2	99.5439	99.5317	12.1739	1E-4
1.299473E+2	110.0318	110.0342	-2.4174	1E-4
1.219773E+2	118.6329	118.6362	-3.2589	1E-4
1.144773E+2	127.8227	127.8381	-15.4258	1E-4
1.076796E+2	137.2745	137.2943	-19.8103	1E-4
1.012978E+2	147.3171	147.3345	-17.4445	1E-4
9.571162E+1	157.2206	157.2324	-11.8208	1E-4
9.104148E+1	166.4573	166.4544	2.9250	1E-4
8.676661E+1	175.8010	175.7881	12.9002	1E-4
8.254929E+1	185.9938	185.9782	15.5805	1E-4
7.879749E+1	196.0284	196.0054	23.0075	1E-4
7.621225E+1	203.5462	203.5238	22.4114	1E-4
7.322289E+1	212.9346	212.9257	8.9189	1E-4
6.818988E+1	230.7548	230.7710	-16.2296	1E-4
6.542841E+1	241.8076	241.8348	-27.1561	1E-4
6.309355E+1	251.9895	252.0191	-29.5799	1E-4
5.953637E+1	269.2395	269.2431	-3.5956	1E-4
5.578451E+1	290.1836	290.1484	35.2283	1E-4
5.364855E+1	303.7017	303.6589	42.7966	1E-4
5.252882E+1	311.2866	311.3331	-46.5103	1E-4
