**Manufacturer reference [X133098] 
=> Used on CM14 [TT08]**


Thermometre :	CX_LS_X133098
Environment :	VA
Date :	25/01/2019
Function :	 logT = Sum ( Ai / logR^i )
Coefficients :	
A0=	1.617165737591350E+3
A1=	-25.901521167802901E+3
A2=	174.222457780785010E+3
A3=	-625.297617106726390E+3
A4=	1.212551793800433E+6
A5=	-898.990433073449880E+3
A6=	-1.099334363331826E+6
A7=	3.132682565927100E+6
A8=	-2.767982396150025E+6
A9=	904.598915626588860E+3
Rmes(Ohm)	Tmes(K)	Tfit(K)	dT(mK)	Courant(A)
8.547266E+2	9.9339	9.9375	-3.5585	1E-5
7.945041E+2	10.9394	10.9361	3.2860	1E-5
7.448022E+2	11.9317	11.9280	3.6926	1E-5
7.024872E+2	12.9239	12.9210	2.8744	1E-5
6.658335E+2	13.9155	13.9152	0.2815	1E-5
6.336542E+2	14.9090	14.9103	-1.2821	1E-5
6.024280E+2	16.0015	16.0048	-3.2664	1E-5
5.770104E+2	17.0009	17.0048	-3.9448	1E-5
5.540727E+2	18.0000	18.0043	-4.2995	1E-5
5.332726E+2	18.9979	19.0010	-3.1080	1E-5
5.142377E+2	19.9952	19.9981	-2.9109	1E-5
4.967316E+2	20.9940	20.9955	-1.4501	1E-5
4.804477E+2	21.9998	22.0001	-0.3292	1E-5
4.656292E+2	22.9867	22.9858	0.8736	1E-5
4.515171E+2	23.9963	23.9943	1.9605	1E-5
4.385989E+2	24.9874	24.9831	4.3125	1E-5
4.262002E+2	26.0022	25.9966	5.6032	1E-5
4.149565E+2	26.9811	26.9753	5.8350	1E-5
4.038734E+2	28.0069	28.0003	6.6160	1E-5
3.271924E+2	37.2425	37.2414	1.0627	1E-5
3.264710E+2	37.3532	37.3512	2.0475	1E-5
3.172092E+2	38.8046	38.8080	-3.4005	1E-5
3.164765E+2	38.9253	38.9272	-1.9057	1E-5
2.500012E+2	52.8998	52.9139	-14.0735	1E-5
2.497128E+2	52.9793	52.9920	-12.7216	1E-5
2.223751E+2	61.3776	61.3830	-5.4480	1E-5
1.980266E+2	70.9425	70.9350	7.5121	1E-5
1.770123E+2	81.4317	81.4090	22.6873	1E-4
1.481734E+2	100.8406	100.8215	19.1427	1E-4
1.358338E+2	111.7059	111.7036	2.3357	1E-4
1.271999E+2	120.5786	120.5827	-4.0611	1E-4
1.192866E+2	129.8381	129.8496	-11.5293	1E-4
1.122473E+2	139.1634	139.1870	-23.5803	1E-4
1.045135E+2	150.8703	150.8896	-19.3305	1E-4
9.956756E+1	159.3160	159.3264	-10.4205	1E-4
9.020950E+1	177.8588	177.8460	12.7877	1E-4
8.463835E+1	190.8861	190.8650	21.1462	1E-4
8.165183E+1	198.6290	198.6054	23.6488	1E-4
7.818975E+1	208.3774	208.3577	19.7354	1E-4
7.498948E+1	218.2311	218.2240	7.0511	1E-4
6.931407E+1	238.1208	238.1342	-13.4136	1E-4
6.640679E+1	249.7313	249.7654	-34.0830	1E-4
6.475230E+1	256.8686	256.8946	-26.0097	1E-4
6.166257E+1	271.3260	271.3429	-16.9092	1E-4
6.002617E+1	279.6693	279.6733	-4.0075	1E-4
5.807556E+1	290.3390	290.3146	24.3514	1E-4
5.701775E+1	296.5122	296.4503	61.8651	1E-4
5.647093E+1	299.7476	299.7337	13.9222	1E-4
5.470624E+1	310.8620	310.9116	-49.5998	1E-4
